CLOSED
Version	2.0
Language	English
Mode	TGA 1000 °C
Run	1
RunSerial	3694
Instrument	TGA Q50 V20.13 Build 39
Module	TGA
InstSerial	0050-0958
Operator	Chimezie
File	\\Chem2503227x015\ta\Data\TGA\Dr Sezer\Gyp_70_BI_T1_Nitrogen.001
FurnaceType	Standard
Sample	Gyp_70_BI_T1_Nitrogen
Size	10.0040	mg
ProcName	Ramp
Method	Ramp
Comment	
Xcomment	Pan: Platinum
Xcomment	Gas1: Nitrogen
Xcomment	Gas2: Air
Xcomment	Balance Gas: Nitrogen 20.0 ml/min
Xcomment	Sample Gas: Nitrogen 20.0 ml/min
Text
Kcell	1.00000
TempCal	2	pts	23.30	23.50,363.56	353.85
InstCalDate	Weight Date 2024-06-24 07:59:50
Controls	Gas 1  Event Off  Sampling 0.5
Nsig	6
Sig1	Time (min)
Sig2	Temperature (°C)
Sig3	Weight (mg)
Sig4	Balance Purge Flow (mL/min)
Sig5	Sample Purge Flow (mL/min)
Sig6	Deriv. Weight (%/°C)
AirCoolTime	0.0 min
AutoAnalysis	Off
MacroFile
Date	2024-10-10
Time	12:41:13
OrgMethod	1: Ramp 70.00 °C/min to 900.00 °C
OrgFile	C:\TA\Data\TGA\Dr Sezer\Gyp_70_BI_T1_Nitrogen.001
StartOfData
.003733334	21.36480	10.00342	19.98314	20.02938	-.01794280
.004166667	21.36843	10.00341	19.99195	19.99841	-.01794092
0.01250000	21.38063	10.00354	20.00414	20.00719	-.01793459
0.02083334	21.40692	10.00382	20.01488	19.98984	-.01792084
0.02916666	21.44196	10.00373	20.01774	19.99718	-.01790229
0.03750000	21.48898	10.00355	19.99554	19.99677	-.01787702
0.04583334	21.55048	10.00388	20.00708	20.03891	-.01784331
0.05416668	21.62445	10.00435	20.00211	19.97038	-.01780180
0.06250000	21.71231	10.00446	19.98185	20.00756	-.01751722
0.07083332	21.80926	10.00484	20.00320	20.00117	-.01749997
0.07916666	21.92172	10.00533	19.98849	19.99155	-.01747954
0.08750000	22.04016	10.00581	20.01471	20.00445	-.01723189
0.09583332	22.17751	10.00606	20.01773	19.99071	-.01720050
0.1041666	22.32232	10.00619	19.99081	19.99122	-.01694400
0.1125000	22.48052	10.00659	20.00003	19.98999	-.01683802
0.1208333	22.64989	10.00702	19.99278	20.00566	-.01639286
0.1291666	22.83028	10.00742	20.00416	20.00143	-.01629654
0.1375000	23.02033	10.00780	19.98004	19.99470	-.01581152
0.1458333	23.22250	10.00828	19.99656	19.99419	-.01569685
0.1541667	23.43460	10.00871	20.00398	19.99951	-.01515944
0.1625000	23.65564	10.00883	20.01456	19.98617	-.01506356
0.1708334	23.88776	10.00861	20.00296	20.00365	-.01451092
0.1791666	24.12664	10.00853	20.00669	19.98599	-.01393408
0.1875000	24.37422	10.00908	19.99048	20.00301	-.01384995
0.1958334	24.63066	10.00955	20.00849	20.01170	-.01331307
0.2041667	24.89660	10.01021	19.98487	19.99628	-.01279140
0.2125000	25.17422	10.01079	19.98509	19.99612	-.01229522
0.2208333	25.45422	10.01127	20.00801	20.02029	-.01224136
0.2291667	25.74638	10.01197	20.01091	19.97959	-.01176524
0.2375000	26.04695	10.01241	20.00786	19.99778	-.01127902
0.2458334	26.35204	10.01259	19.99522	19.99679	-.01086215
0.2541666	26.66455	10.01276	20.00017	19.99802	-9.4971E-3
0.2625000	26.98291	10.01321	20.00001	20.01532	-8.3605E-3
0.2708334	27.31132	10.01360	19.98494	19.99766	-7.5473E-3
0.2791667	27.64274	10.01347	19.99766	19.99774	-6.6228E-3
0.2875000	27.98132	10.01345	20.01092	20.00967	-5.6709E-3
0.2958333	28.32625	10.01334	19.99783	20.00344	-4.7855E-3
0.3041667	28.67830	10.01337	20.01909	20.00074	-4.2982E-3
0.3125000	29.03610	10.01321	20.00154	19.98558	-3.6878E-3
0.3208333	29.40059	10.01328	19.99439	20.00834	-2.5152E-3
0.3291667	29.76814	10.01330	19.98727	20.01439	-1.7219E-3
0.3375000	30.14364	10.01336	19.99898	20.01679	-9.8014E-4
0.3458333	30.52430	10.01355	19.98712	19.99551	-6.3257E-5
0.3541666	30.90628	10.01331	20.00338	19.99894	4.22773E-4
0.3625000	31.29484	10.01348	19.99226	20.00342	6.63041E-4
0.3708334	31.69156	10.01382	20.01985	20.00294	.001127902
0.3791666	32.09035	10.01368	20.01130	19.98438	.001402444
0.3875000	32.49328	10.01355	19.99439	19.98821	.001557223
0.3958334	32.90282	10.01310	20.00989	20.01503	.001751451
0.4041666	33.31362	10.01300	19.98211	19.99325	.001972432
0.4125000	33.72934	10.01299	19.99067	19.99792	.002256746
0.4208333	34.15162	10.01278	19.99847	20.00403	.002361324
0.4291667	34.57652	10.01262	19.99871	19.99668	.002457788
0.4375000	35.00622	10.01242	20.01691	19.97792	.002500134
0.4458333	35.43834	10.01223	20.00869	19.98206	.002605136
0.4541667	35.87663	10.01222	19.99776	19.99411	.002669309
0.4625000	36.31380	10.01222	19.99930	20.02052	.002821402
0.4708334	36.75572	10.01213	20.00375	20.00535	.002910930
0.4791666	37.20586	10.01208	19.97658	19.99640	.002950026
0.4875000	37.65485	10.01175	19.99175	20.02407	.002972482
0.4958334	38.10810	10.01132	20.01104	19.99918	.003087390
0.5041666	38.56258	10.01120	20.01698	20.00752	.003259260
0.5125000	39.02595	10.01138	20.01184	19.99709	.003337576
0.5208332	39.48702	10.01143	19.98561	20.00086	.003356748
0.5291666	39.95508	10.01153	20.00018	20.01260	.003354861
0.5375000	40.42403	10.01133	19.98902	20.01109	.003369700
0.5458334	40.89505	10.01100	20.00059	19.99594	.003456722
0.5541668	41.36898	10.01088	19.99405	20.00804	.003509059
0.5625000	41.85002	10.01031	20.01332	19.98360	.003619054
0.5708332	42.32946	10.01008	19.98692	19.99824	.003618794
0.5791666	42.81022	10.00977	20.00868	19.97041	.003697537
0.5875000	43.29293	10.00944	20.01156	20.00189	.003872972
0.5958334	43.78084	10.00930	20.00035	20.00382	.004085078
0.6041668	44.27299	10.00935	19.98400	20.00702	.004257592
0.6125000	44.76622	10.00935	20.00388	19.99078	.004332528
0.6208334	45.25875	10.00923	19.99476	20.00692	.004254210
0.6291666	45.75828	10.00918	19.99514	19.98924	.004055276
0.6375000	46.25596	10.00894	19.98480	19.99558	.003891446
0.6458332	46.76030	10.00847	20.01804	19.99265	.003631164
0.6541666	47.26346	10.00837	20.01124	20.00542	.003494875
0.6625000	47.76916	10.00798	20.00286	19.99640	.003350258
0.6708334	48.27534	10.00762	19.98314	20.02312	.003226176
0.6791668	48.78226	10.00725	20.00041	20.00481	.003243590
0.6875000	49.29214	10.00722	19.99625	20.01209	.003214838
0.6958332	49.80574	10.00711	20.00521	19.99188	.003102278
0.7041666	50.32022	10.00709	19.99576	20.00760	.002999000
0.7125000	50.83308	10.00717	20.00802	19.98641	.002897311
0.7208334	51.35176	10.00701	20.01626	20.00146	.002788314
0.7291668	51.87161	10.00694	20.00647	19.99031	.002786221
0.7375000	52.39321	10.00676	19.98262	20.01445	.002839520
0.7458334	52.91418	10.00674	19.99412	20.00642	.002832360
0.7541666	53.44059	10.00654	19.99416	19.99643	.002870458
0.7625000	53.96544	10.00631	19.99637	20.00335	.003029054
0.7708332	54.49221	10.00633	20.00209	19.98691	.003263632
0.7791666	55.02316	10.00610	20.02550	19.99143	.003577562
0.7875000	55.54910	10.00584	19.99421	19.99691	.003745088
0.7958334	56.07954	10.00561	19.99856	19.99519	.003694089
0.8041668	56.61200	10.00525	19.99963	20.00361	.003751221
0.8125000	57.14788	10.00487	19.98806	20.01048	.003845390
0.8208332	57.68396	10.00478	19.99398	19.98871	.003976946
0.8291666	58.22047	10.00470	19.99636	19.99274	.004059197
0.8375000	58.75748	10.00448	20.00992	19.99192	.004079292
0.8458334	59.29703	10.00422	20.00564	20.00069	.004117167
0.8541668	59.83570	10.00366	20.00677	19.99155	.004152952
0.8625000	60.37504	10.00358	20.00240	20.00381	.004068159
0.8708332	60.91873	10.00392	19.99442	20.00262	.003979422
0.8791668	61.46168	10.00363	19.99542	20.00541	.003835053
0.8875000	62.00516	10.00324	20.00142	19.99765	.003903030
0.8958332	62.55068	10.00287	19.99220	20.02158	.003970897
0.9041666	63.09670	10.00256	20.01262	19.99816	.003869613
0.9125000	63.64414	10.00238	19.99914	20.00402	.003708954
0.9208334	64.19030	10.00226	19.99715	19.98819	.003595498
0.9291668	64.73950	10.00188	20.01686	19.99994	.003401530
0.9375000	65.28974	10.00181	19.99675	20.00314	.003447835
0.9458332	65.83980	10.00168	19.98044	20.00607	.003527294
0.9541666	66.39111	10.00165	20.00253	20.00051	.003364561
0.9625000	66.94055	10.00106	19.98062	20.00912	.003110539
0.9708334	67.49450	10.00085	20.01037	19.99996	.002965254
0.9791668	68.04749	10.00102	19.99687	19.99969	.002882135
0.9875000	68.60180	10.00101	20.02847	19.98649	.002805130
0.9958332	69.15668	10.00079	19.98237	20.00398	.002786148
1.004167	69.71125	10.00067	20.01170	19.99919	.002710023
1.012500	70.26722	10.00035	20.00634	20.01034	.002745808
1.020833	70.82495	10.00020	19.97196	19.98745	.002793923
1.029167	71.38135	10.00006	20.00508	20.01750	.002840387
1.037500	71.94006	10.00005	19.99482	20.00086	.002704296
1.045834	72.49890	9.999901	20.01711	19.99092	.002912229
1.054167	73.05722	9.999551	20.00337	19.98590	.003070020
1.062500	73.61816	9.999609	20.02147	19.99674	.003097688
1.070833	74.17469	9.999301	19.98999	20.00022	.003053309
1.079166	74.73630	9.999116	19.98586	20.01192	.002975398
1.087500	75.29504	9.998994	19.98731	19.99471	.002889923
1.095833	75.85813	9.998658	19.99709	20.00266	.002860916
1.104166	76.41926	9.998572	19.98955	20.00322	.002830834
1.112500	76.98048	9.998456	20.01411	20.00041	.002746971
1.120833	77.54474	9.998059	20.00546	19.99405	.002598295
1.129167	78.10525	9.997986	20.01272	19.99635	.002406832
1.137500	78.66919	9.997909	19.99191	19.98638	.002235538
1.145834	79.23356	9.997832	19.99159	20.00805	.002075198
1.154167	79.79534	9.997847	20.00884	20.00056	.001987277
1.162500	80.35735	9.997662	19.98364	20.01227	.001888500
1.170834	80.92306	9.997499	19.99227	19.98688	.001835602
1.179167	81.48928	9.997360	20.01074	19.99080	.001901782
1.187500	82.05285	9.997394	19.99782	20.00348	.001956918
1.195833	82.61782	9.997296	20.02473	19.99132	.002019814
1.204166	83.18286	9.997406	19.99920	20.00946	.002181146
1.212500	83.75112	9.997318	20.00846	19.99622	.002372276
1.220833	84.31434	9.997006	19.99053	20.00145	.002609244
1.229166	84.88379	9.996853	19.98432	20.02832	.002822158
1.237500	85.44947	9.996788	19.99825	19.97418	.002898070
1.245833	86.01710	9.996503	20.00058	20.01300	.002921716
1.254167	86.58149	9.996172	19.99029	19.99350	.002958013
1.262500	87.14863	9.996042	20.00881	19.99887	.003026116
1.270834	87.71492	9.995910	20.01912	20.00186	.003136780
1.279167	88.28553	9.995648	19.99683	19.99755	.003195306
1.287500	88.85355	9.995376	20.00524	20.01719	.003141768
1.295834	89.42142	9.995000	19.98447	20.00336	.003088760
1.304167	89.98888	9.994876	19.98289	20.00136	.003080702
1.312500	90.55757	9.995072	19.99445	20.00413	.002954230
1.320833	91.12649	9.995053	20.00360	20.00830	.002717212
1.329166	91.69525	9.994945	20.01329	19.98455	.002576025
1.337500	92.26520	9.994618	20.00198	20.00643	.002533920
1.345833	92.83420	9.994205	20.02612	19.98575	.002508878
1.354166	93.40285	9.994179	19.99924	20.00646	.002499318
1.362500	93.97266	9.993993	19.97862	20.02031	.002496310
1.370833	94.54059	9.993816	20.00812	19.99089	.002527430
1.379167	95.11028	9.993582	19.97358	20.00600	.002665444
1.387500	95.67866	9.993866	20.00357	20.00114	.002777896
1.395834	96.24648	9.993863	20.01392	19.98558	.002836532
1.404167	96.81493	9.993554	20.00264	19.98793	.002913545
1.412500	97.38449	9.993266	20.00636	19.99021	.002999042
1.420834	97.95426	9.993000	19.99236	19.99750	.003178446
1.429167	98.52203	9.992792	20.01358	20.01971	.003403875
1.437500	99.09092	9.992711	19.99949	19.98838	.003571038
1.445833	99.65603	9.992611	19.97549	20.00152	.003745728
1.454166	100.2260	9.992311	20.00456	20.01103	.003999222
1.462500	100.7943	9.992203	19.99262	19.99941	.004298797
1.470833	101.3629	9.991809	20.01295	19.99339	.004472512
1.479166	101.9307	9.991444	20.00950	20.00104	.004557098
1.487500	102.5002	9.991184	20.00186	19.99123	.004680367
1.495833	103.0684	9.990858	19.98688	20.01637	.004825730
1.504167	103.6347	9.990652	20.00775	20.00239	.004937207
1.512500	104.2032	9.990526	20.00088	20.01045	.005006146
1.520834	104.7701	9.990235	19.97838	20.00599	.005088472
1.529167	105.3399	9.989864	20.00936	20.01371	.005191102
1.537500	105.9110	9.989325	19.99213	19.98911	.005256071
1.545834	106.4768	9.989090	20.01764	19.99117	.005291838
1.554167	107.0451	9.988902	20.00180	19.99029	.005402408
1.562500	107.6122	9.988501	20.00320	20.00410	.005568386
1.570833	108.1820	9.988262	19.99665	19.99762	.005764734
1.579166	108.7487	9.988124	19.99801	20.00338	.005976544
1.587500	109.3171	9.987894	19.98769	19.99633	.006172562
1.595833	109.8880	9.987291	19.99052	20.01655	.006420196
1.604166	110.4553	9.986942	20.00316	19.97162	.006764502
1.612500	111.0220	9.986641	20.01046	19.99786	.007238620
1.620833	111.5928	9.986280	20.00975	19.99021	.007778584
1.629167	112.1619	9.985790	20.00565	19.98087	.008269062
1.637500	112.7307	9.985326	20.00081	20.01070	.008857982
1.645834	113.2978	9.984860	19.99751	19.99750	.009633399
1.654167	113.8664	9.984472	19.99301	20.00902	0.01047903
1.662500	114.4364	9.983951	19.98660	20.00969	0.01134126
1.670834	115.0034	9.983149	20.01904	20.00469	0.01233660
1.679166	115.5727	9.982349	19.98741	20.00109	0.01349611
1.687500	116.1410	9.981506	19.99428	20.01669	0.01474116
1.695834	116.7093	9.980969	19.99542	19.99266	0.01599529
1.704166	117.2764	9.980343	20.00895	20.00636	0.01721596
1.712500	117.8449	9.979218	20.02477	19.98198	0.01848769
1.720833	118.4141	9.977975	19.98790	20.00760	0.01991571
1.729166	118.9826	9.976830	20.00151	19.99208	0.02150087
1.737500	119.5521	9.975553	19.99754	19.99694	0.02315684
1.745833	120.1222	9.974036	19.98517	19.99896	0.02498407
1.754167	120.6892	9.972612	20.00174	20.00216	0.02695512
1.762500	121.2586	9.970975	19.99378	20.00761	0.02901919
1.770834	121.8238	9.969595	20.01644	19.98454	0.03112946
1.779167	122.3918	9.968195	19.99926	19.99168	0.03323344
1.787500	122.9616	9.966472	20.02731	20.00382	0.03542215
1.795834	123.5314	9.964257	19.98453	19.99448	0.03773042
1.804166	124.1008	9.961895	20.00235	20.01114	0.04010484
1.812500	124.6681	9.959532	19.98564	20.01543	0.04256820
1.820834	125.2354	9.956696	19.99078	19.99892	0.04516711
1.829166	125.8008	9.954202	19.98935	20.01252	0.04787583
1.837500	126.3685	9.951519	20.01378	20.00321	0.05067526
1.845833	126.9355	9.948788	20.00953	19.98816	0.05355171
1.854166	127.5051	9.945621	19.99747	20.01030	0.05639384
1.862500	128.0696	9.942242	20.02506	19.99090	0.05913150
1.870833	128.6388	9.938928	19.98634	20.00349	0.06186806
1.879167	129.2067	9.935512	19.98702	20.00672	0.06457868
1.887500	129.7746	9.931649	20.00588	20.00996	0.06718910
1.895834	130.3405	9.927705	19.98324	20.00031	0.06983814
1.904167	130.9103	9.923575	19.98944	20.00127	0.07256860
1.912500	131.4743	9.919374	20.02509	19.98432	0.07516254
1.920834	132.0444	9.914892	20.00172	19.99637	0.07764005
1.929166	132.6088	9.910334	19.99879	20.00491	0.08002346
1.937500	133.1761	9.905601	20.01566	19.99041	0.08245962
1.945834	133.7425	9.900647	19.98134	20.00504	0.08491425
1.954166	134.3098	9.895995	20.01512	19.99325	0.08724676
1.962500	134.8759	9.891225	19.97504	20.00104	0.08947548
1.970833	135.4419	9.885937	20.00048	20.00254	0.09172657
1.979166	136.0119	9.880609	19.99374	19.99286	0.09395318
1.987500	136.5775	9.875465	20.01676	19.98001	0.09609329
1.995833	137.1445	9.869988	19.99111	20.00503	0.09821791
2.004166	137.7100	9.864341	20.02422	19.99326	0.1003272
2.012500	138.2756	9.858338	20.00075	20.00324	0.1025682
2.020833	138.8431	9.852356	19.99374	20.00700	0.1049821
2.029167	139.4098	9.846424	19.99384	20.00336	0.1073681
2.037500	139.9783	9.840311	19.98318	19.99540	0.1095654
2.045834	140.5461	9.833891	20.00105	20.01556	0.1115992
2.054166	141.1116	9.827628	20.00506	20.00520	0.1136801
2.062500	141.6796	9.821303	20.00079	19.98634	0.1157953
2.070834	142.2474	9.814640	20.00568	19.99486	0.1179352
2.079166	142.8127	9.808101	20.01620	20.00644	0.1200088
2.087500	143.3799	9.800641	19.99109	20.00334	0.1221916
2.095833	143.9454	9.793426	20.00505	20.00984	0.1250952
2.104167	144.5131	9.786484	19.97912	20.01193	0.1289152
2.112500	145.0790	9.779532	20.00437	20.00572	0.1334545
2.120834	145.6493	9.772546	19.99229	19.99169	0.1385636
2.129166	146.2139	9.764993	20.01702	20.00225	0.1439053
2.137500	146.7819	9.757332	19.98923	19.99284	0.1490919
2.145833	147.3491	9.749222	20.02258	19.98910	0.1539621
2.154167	147.9170	9.741657	19.99286	20.00123	0.1584038
2.162500	148.4817	9.733126	19.97969	20.03306	0.1623974
2.170834	149.0501	9.722381	20.00846	19.97712	0.1662046
2.179166	149.6173	9.710876	19.98896	19.99740	0.1697313
2.187500	150.1854	9.699253	20.02068	20.00682	0.1727544
2.195834	150.7534	9.687834	19.98997	19.99016	0.1751466
2.204166	151.3184	9.677265	20.00816	19.99466	0.1769491
2.212500	151.8827	9.667398	20.01030	19.99449	0.1782015
2.220833	152.4515	9.657681	19.99121	20.00108	0.1789160
2.229167	153.0181	9.648270	20.00475	19.99501	0.1790258
2.237500	153.5842	9.638818	19.99575	19.99670	0.1783209
2.245834	154.1539	9.628876	19.98009	20.00272	0.1771633
2.254166	154.7202	9.618805	20.00691	20.00794	0.1761525
2.262500	155.2901	9.608957	20.00336	19.99334	0.1756126
2.270833	155.8570	9.598994	19.99006	19.98912	0.1757841
2.279167	156.4234	9.588875	20.00690	19.99369	0.1766355
2.287500	156.9912	9.578809	20.01245	20.01172	0.1778136
2.295834	157.5590	9.568706	20.01452	19.99126	0.1790575
2.304166	158.1246	9.558645	19.98851	20.01039	0.1802792
2.312500	158.6934	9.548556	19.99524	20.00220	0.1814620
2.320834	159.2605	9.538514	19.98415	20.01136	0.1826201
2.329166	159.8285	9.528407	19.99229	20.02898	0.1838821
2.337500	160.3960	9.517947	20.01074	19.96256	0.1853103
2.345833	160.9637	9.506936	20.00504	20.00950	0.1868268
2.354167	161.5307	9.495881	20.01177	20.00501	0.1884083
2.362500	162.0970	9.485187	20.01577	19.99702	0.1900691
2.370834	162.6659	9.474562	19.99956	20.00305	0.1918078
2.379166	163.2331	9.463889	19.97800	20.00449	0.1935953
2.387500	163.8012	9.452834	19.98111	20.00957	0.1953450
2.395833	164.3694	9.441856	19.99722	20.00156	0.1970364
2.404167	164.9358	9.430664	20.01498	20.00602	0.1986156
2.412500	165.5034	9.419149	19.99451	19.98636	0.2000576
2.420834	166.0716	9.407586	20.01929	20.00303	0.2015166
2.429166	166.6372	9.396172	19.99182	19.98848	0.2030211
2.437500	167.2045	9.384532	20.00823	20.00687	0.2044640
2.445834	167.7723	9.372745	19.98864	20.00775	0.2058254
2.454166	168.3420	9.360864	19.99274	19.99866	0.2071025
2.462500	168.9098	9.349156	19.99538	19.99776	0.2082906
2.470833	169.4753	9.337226	19.99547	19.98172	0.2094377
2.479167	170.0426	9.325301	19.99954	19.99785	0.2105328
2.487500	170.6102	9.313264	20.01222	19.99993	0.2116434
2.495834	171.1789	9.300970	20.00760	19.99340	0.2127736
2.504166	171.7486	9.289090	20.01028	19.99225	0.2138812
2.512500	172.3158	9.277294	19.99937	20.00164	0.2149990
2.520833	172.8837	9.265064	19.98993	20.01543	0.2161246
2.529167	173.4520	9.252680	19.99278	19.99766	0.2172059
2.537500	174.0198	9.240326	20.00480	19.98956	0.2182605
2.545834	174.5891	9.227756	19.99575	20.00469	0.2192663
2.554166	175.1557	9.215171	20.00331	19.99512	0.2202416
2.562500	175.7242	9.202414	20.00262	19.99012	0.2212086
2.570834	176.2924	9.189874	20.00197	19.99154	0.2222095
2.579166	176.8612	9.177176	19.99912	19.99660	0.2232806
2.587500	177.4283	9.164269	20.00751	19.99926	0.2242999
2.595833	177.9970	9.151512	19.98141	20.00406	0.2252028
2.604167	178.5662	9.138889	20.00508	20.02148	0.2260262
2.612500	179.1337	9.126001	19.97568	20.00224	0.2267801
2.620834	179.7021	9.113246	20.01994	19.98092	0.2274719
2.629166	180.2716	9.100330	19.99654	20.01039	0.2280997
2.637500	180.8384	9.087312	20.01025	19.99373	0.2287124
2.645833	181.4092	9.074256	20.00346	19.99636	0.2293446
2.654167	181.9766	9.060957	20.01236	20.01119	0.2299452
2.662500	182.5469	9.047558	19.97935	20.00192	0.2305384
2.670834	183.1149	9.034391	19.99496	20.00257	0.2311127
2.679166	183.6833	9.021305	20.00268	20.00731	0.2315975
2.687500	184.2528	9.008129	19.99884	19.98517	0.2319940
2.695834	184.8203	8.994974	20.00624	19.99734	0.2322215
2.704166	185.3887	8.981910	20.00647	19.99929	0.2322893
2.712500	185.9568	8.968689	19.99707	19.99716	0.2324149
2.720833	186.5254	8.955341	20.00054	19.99584	0.2325788
2.729167	187.0968	8.941861	19.99970	20.01054	0.2327058
2.737500	187.6629	8.928634	20.00218	20.00786	0.2330154
2.745834	188.2344	8.915368	19.99003	19.99711	0.2335327
2.754166	188.8031	8.902078	19.98997	20.00557	0.2340810
2.762500	189.3706	8.888845	20.00502	19.99075	0.2345616
2.770833	189.9381	8.876074	20.01177	20.00066	0.2350003
2.779167	190.5083	8.862828	20.00226	19.98747	0.2354437
2.787500	191.0796	8.849094	20.00416	20.01877	0.2359056
2.795834	191.6475	8.835649	19.99605	19.98582	0.2363041
2.804166	192.2189	8.822274	19.99925	20.00489	0.2366289
2.812500	192.7872	8.808314	19.99809	19.99702	0.2368810
2.820834	193.3580	8.794481	19.98520	20.00713	0.2369716
2.829166	193.9275	8.780866	20.01020	20.00053	0.2369423
2.837500	194.4974	8.767505	20.01004	20.00346	0.2369301
2.845833	195.0685	8.753976	19.99310	19.97877	0.2368140
2.854167	195.6344	8.740391	20.01612	19.99495	0.2364048
2.862500	196.2022	8.726629	19.99579	20.00800	0.2358532
2.870834	196.7731	8.713330	19.99515	20.00872	0.2352822
2.879166	197.3424	8.699972	19.98823	20.00748	0.2346201
2.887500	197.9143	8.686785	19.99586	20.00305	0.2339047
2.895833	198.4831	8.673736	19.99422	20.00072	0.2332449
2.904167	199.0509	8.660541	20.00954	20.00598	0.2326560
2.912500	199.6214	8.646978	20.00908	19.99202	0.2320367
2.920834	200.1915	8.633660	20.00091	19.98688	0.2312970
2.929166	200.7586	8.620657	20.00693	20.01936	0.2305241
2.937500	201.3299	8.607544	20.00241	20.00437	0.2298501
2.945834	201.9011	8.594398	19.97558	20.01050	0.2292389
2.954166	202.4691	8.581254	20.00864	20.01761	0.2285690
2.962500	203.0395	8.568215	19.99588	19.99426	0.2278728
2.970833	203.6102	8.555305	20.00897	20.02941	0.2271038
2.979167	204.1796	8.542220	19.99715	19.95908	0.2262028
2.987500	204.7505	8.529430	20.00776	20.00124	0.2252140
2.995834	205.3218	8.516648	20.00118	20.00570	0.2242476
3.004166	205.8918	8.503892	20.00286	19.99452	0.2232402
3.012500	206.4612	8.491072	19.99319	19.99701	0.2220466
3.020833	207.0329	8.478359	19.98347	20.00462	0.2206827
3.029167	207.6023	8.465824	20.00481	20.00517	0.2192515
3.037500	208.1720	8.453182	19.99638	19.98727	0.2177598
3.045834	208.7453	8.440543	20.00459	19.98546	0.2161855
3.054166	209.3148	8.428205	20.00798	19.99923	0.2145730
3.062500	209.8856	8.416076	20.02695	19.99684	0.2128645
3.070834	210.4582	8.403749	19.98576	19.98860	0.2110237
3.079166	211.0247	8.391789	19.99170	20.02099	0.2090888
3.087500	211.5968	8.380111	19.98374	19.99092	0.2070980
3.095833	212.1673	8.368420	19.99353	20.00191	0.2051408
3.104167	212.7396	8.356714	20.00639	20.00446	0.2031233
3.112500	213.3109	8.345191	20.01276	19.98883	0.2009313
3.120834	213.8820	8.333588	20.01861	19.99714	0.1986855
3.129166	214.4546	8.322175	19.99682	20.01624	0.1964302
3.137500	215.0234	8.311179	20.01090	20.00868	0.1940339
3.145833	215.5955	8.300056	19.97145	20.00372	0.1915679
3.154167	216.1652	8.289188	19.99158	20.00829	0.1891298
3.162500	216.7342	8.278318	19.98939	20.01064	0.1865973
3.170834	217.3070	8.267374	20.00689	19.98085	0.1839442
3.179166	217.8778	8.256878	20.00869	19.99657	0.1812217
3.187500	218.4498	8.246929	20.00969	19.99456	0.1783248
3.195834	219.0201	8.236703	20.00219	20.00642	0.1752430
3.204167	219.5905	8.226838	20.00509	19.99675	0.1720602
3.212500	220.1627	8.217218	19.98540	19.99927	0.1687366
3.220833	220.7342	8.207476	19.99703	20.00815	0.1653113
3.229167	221.3045	8.198003	19.99050	19.99304	0.1618128
3.237500	221.8786	8.188710	20.01132	19.98660	0.1582267
3.245834	222.4488	8.179478	20.00506	20.00178	0.1546536
3.254166	223.0194	8.170593	20.01492	19.99629	0.1510762
3.262500	223.5895	8.162208	19.99294	19.98326	0.1473029
3.270833	224.1630	8.154069	19.99759	20.01235	0.1432490
3.279167	224.7328	8.146079	20.01185	19.98594	0.1390669
3.287500	225.3028	8.138343	19.97430	20.00709	0.1346622
3.295833	225.8764	8.130515	19.99229	20.00713	0.1300073
3.304166	226.4463	8.123103	19.99913	20.00462	0.1252172
3.312500	227.0195	8.115736	20.01943	19.99606	0.1202146
3.320834	227.5910	8.108743	19.99213	20.00584	0.1150223
3.329167	228.1606	8.102093	20.00008	19.99862	0.1097239
3.337500	228.7342	8.095928	20.01822	20.00436	0.1043248
3.345833	229.3062	8.090190	19.97984	20.00233	0.09884915
3.354167	229.8770	8.084535	20.00062	20.00855	0.09327384
3.362500	230.4516	8.079410	19.98998	20.01504	0.08754831
3.370834	231.0241	8.074574	20.00597	19.98854	0.08180266
3.379166	231.5949	8.070094	20.00426	20.01409	0.07616324
3.387500	232.1684	8.066100	20.01080	19.98190	0.07069253
3.395833	232.7394	8.062476	19.99405	20.00697	0.06547090
3.404167	233.3111	8.059161	20.01174	20.00179	0.06048684
3.412500	233.8833	8.055849	19.99566	20.02772	0.05579590
3.420833	234.4553	8.052744	19.98762	19.98231	0.05146150
3.429166	235.0277	8.050064	19.99176	20.01736	0.04748866
3.437500	235.6003	8.047830	19.99848	19.99425	0.04378180
3.445834	236.1722	8.045650	20.01218	19.98912	0.04036878
3.454167	236.7474	8.043591	20.00194	19.98394	0.03730503
3.462500	237.3196	8.041609	20.01043	20.00673	0.03450770
3.470833	237.8896	8.039922	19.99154	19.99456	0.03198633
3.479167	238.4634	8.038445	20.00822	20.00864	0.02968581
3.487500	239.0358	8.036876	19.99399	20.00751	0.02757155
3.495834	239.6098	8.035043	19.98349	19.98358	0.02569758
3.504166	240.1837	8.033672	20.00388	20.00860	0.02400568
3.512500	240.7564	8.032637	19.99823	20.00498	0.02242551
3.520833	241.3288	8.031360	20.02726	19.97533	0.02094927
3.529167	241.9016	8.030274	19.99269	20.00080	0.01962933
3.537500	242.4758	8.029366	19.98377	20.00034	0.01849570
3.545833	243.0502	8.028120	20.00986	19.99625	0.01751016
3.554166	243.6214	8.027239	19.99624	19.99581	0.01653127
3.562500	244.1953	8.026293	20.00020	19.99422	0.01553510
3.570834	244.7678	8.025600	19.99122	20.01238	0.01465747
3.579167	245.3414	8.025000	19.99251	19.99128	0.01388242
3.587500	245.9154	8.024342	20.01608	19.99408	0.01311354
3.595833	246.4888	8.023606	20.00395	19.99636	0.01236557
3.604167	247.0623	8.022750	20.00074	19.99423	0.01168246
3.612500	247.6358	8.021908	20.01668	20.00799	0.01099035
3.620834	248.2098	8.021174	19.98482	20.01470	0.01033995
3.629166	248.7834	8.020740	19.98696	19.99982	.009773111
3.637500	249.3575	8.020126	19.99299	19.99559	.009316720
3.645833	249.9338	8.019736	20.00417	20.00708	.008965580
3.654167	250.5075	8.019401	20.00672	19.98766	.008625269
3.662500	251.0804	8.018946	20.01151	20.00558	.008286587
3.670833	251.6540	8.018574	20.00099	20.00394	.007957309
3.679166	252.2268	8.018155	20.00663	20.00013	.007659240
3.687500	252.8012	8.017822	20.00430	20.00630	.007420839
3.695834	253.3753	8.017463	19.97754	19.99612	.007322076
3.704167	253.9520	8.017107	19.99209	20.00994	.007229337
3.712500	254.5270	8.016465	19.98941	20.01351	.007159169
3.720833	255.0999	8.016040	20.01442	19.99320	.007153955
3.729167	255.6748	8.015492	20.01301	19.99445	.007041610
3.737500	256.2480	8.015118	20.00009	20.00202	.006828791
3.745834	256.8236	8.014618	20.00095	19.99850	.006570869
3.754166	257.3975	8.014419	19.99406	20.00719	.006320146
3.762500	257.9697	8.014008	19.99040	20.01249	.006135453
3.770833	258.5466	8.013576	20.00096	19.99001	.005929384
3.779167	259.1203	8.013380	20.00568	19.98774	.005633020
3.787500	259.6950	8.012874	19.99389	20.00873	.005407858
3.795833	260.2689	8.012534	20.01299	19.98362	.005255718
3.804166	260.8436	8.012506	19.99130	19.99886	.005096044
3.812500	261.4160	8.012374	20.01638	20.00154	.004949848
3.820834	261.9948	8.012253	19.98827	19.99723	.004825264
3.829167	262.5680	8.011840	20.01282	19.99929	.004695606
3.837500	263.1442	8.011344	19.97655	19.99245	.004555640
3.845833	263.7179	8.011169	20.01684	19.99223	.004496722
3.854167	264.2936	8.010970	19.98640	19.99599	.004454908
3.862500	264.8685	8.010438	19.99988	20.00112	.004411832
3.870834	265.4434	8.010257	20.00972	19.99846	.004453804
3.879166	266.0192	8.010040	20.01694	20.00215	.004507112
3.887500	266.5916	8.009872	19.99110	20.01419	.004345268
3.895833	267.1694	8.009692	19.99720	19.99259	.003821176
3.904167	267.7428	8.009510	19.97856	20.01703	.003078416
3.912500	268.3176	8.009234	20.00905	20.00272	.002340316
3.920833	268.8944	8.008911	19.99839	20.00134	.001613589
3.929166	269.4698	8.008620	20.00057	19.99564	8.57959E-4
3.937500	270.0465	8.008484	19.99876	20.00143	2.31273E-4
3.945834	270.6213	8.008110	20.02068	19.99785	-2.4554E-4
3.954167	271.1960	8.007916	19.99939	20.01218	-6.5202E-4
3.962500	271.7705	8.008426	19.97455	19.99566	-9.2201E-4
3.970833	272.3446	8.009190	20.01520	20.02343	-1.0441E-3
3.979167	272.9193	8.009659	19.97726	20.00230	-1.0790E-3
3.987500	273.4958	8.009968	20.00368	19.99253	-1.0905E-3
3.995834	274.0717	8.010166	20.01927	19.99663	-1.1566E-3
4.004166	274.6480	8.010234	20.00782	19.98764	-1.1952E-3
4.012500	275.2236	8.010060	20.00181	19.99616	-1.0743E-3
4.020834	275.7996	8.010000	20.00414	20.00020	-7.3382E-4
4.029167	276.3732	8.009870	19.96968	20.00440	-1.0913E-4
4.037500	276.9512	8.009498	20.01318	20.00800	6.51897E-4
4.045833	277.5274	8.009197	19.99038	19.99994	.001249708
4.054167	278.1028	8.008995	19.99312	19.98556	.001693886
4.062500	278.6765	8.009144	20.00731	19.98761	.002098031
4.070833	279.2522	8.009639	20.01969	20.00055	.002467287
4.079167	279.8297	8.009742	19.99246	20.00662	.002786007
4.087500	280.4045	8.009452	20.00134	19.99174	.003033405
4.095833	280.9822	8.009162	20.00506	20.00414	.003214499
4.104166	281.5590	8.008736	19.99608	20.01364	.003408214
4.112500	282.1368	8.008487	19.99359	19.99759	.003705337
4.120834	282.7118	8.008386	19.98505	20.00934	.004002776
4.129166	283.2881	8.007978	20.02024	20.01161	.004246696
4.137500	283.8642	8.007582	19.98243	20.00320	.004439878
4.145834	284.4435	8.007100	20.01358	19.98752	.004454643
4.154167	285.0181	8.006811	19.99384	20.01218	.004205965
4.162500	285.5952	8.006750	20.00012	19.99535	.003784306
4.170833	286.1724	8.006646	20.01695	19.99702	.003319556
4.179167	286.7516	8.006090	19.99173	19.98450	.002967114
4.187500	287.3272	8.005761	19.99376	20.01490	.002759934
4.195833	287.9032	8.005769	20.00483	20.00833	.002623264
4.204167	288.4801	8.005887	19.98822	19.98894	.002511136
4.212500	289.0560	8.005810	20.00057	20.00122	.002413885
4.220833	289.6314	8.005757	20.01037	19.98118	.002327046
4.229166	290.2075	8.005816	19.99469	20.00476	.002342312
4.237500	290.7838	8.006068	20.01240	20.00362	.002485044
4.245834	291.3595	8.005879	19.99913	19.98880	.002619384
4.254166	291.9368	8.005616	19.99087	20.00908	.002759031
4.262500	292.5152	8.005093	19.98090	20.01412	.002973278
4.270834	293.0934	8.004684	20.00976	20.01051	.003234496
4.279167	293.6711	8.004410	20.01662	19.97362	.003462922
4.287500	294.2461	8.004382	19.98984	20.00137	.003657018
4.295833	294.8244	8.004426	20.01004	19.99627	.003920645
4.304167	295.4017	8.004088	20.01131	19.99831	.004211518
4.312500	295.9784	8.003588	19.98684	20.00151	.004455350
4.320833	296.5537	8.003348	19.99770	19.99564	.004643322
4.329167	297.1318	8.003269	19.98832	20.00709	.004654625
4.337500	297.7102	8.003232	20.01062	20.00368	.004572387
4.345833	298.2878	8.002915	19.97994	19.99760	.004580740
4.354166	298.8640	8.002753	20.01129	19.98045	.004710404
4.362500	299.4435	8.002344	19.99596	19.99436	.004780496
4.370834	300.0204	8.001875	20.01776	20.00233	.004601780
4.379166	300.5972	8.001462	19.99460	19.99663	.004292334
4.387500	301.1760	8.000744	19.99859	20.00619	.004018744
4.395834	301.7522	8.000518	19.98991	20.00992	.003726086
4.404167	302.3304	8.000660	20.00314	20.00690	.003415150
4.412500	302.9082	8.000665	19.99382	19.99047	.003085680
4.420833	303.4871	8.000275	20.00796	19.98212	.002820127
4.429167	304.0640	7.999938	20.00935	19.99442	.002573540
4.437500	304.6407	7.999994	19.99276	19.99951	.002328436
4.445833	305.2203	8.000199	20.00102	20.00311	.002148195
4.454167	305.7967	8.000064	20.00913	20.00700	.002012982
4.462500	306.3757	8.000172	19.98649	19.99647	.002056510
4.470833	306.9543	8.000219	19.99426	20.00963	.002258252
4.479166	307.5336	8.000082	19.99260	20.00532	.002419986
4.487500	308.1115	7.999753	20.01326	20.00142	.002434130
4.495834	308.6888	7.999380	20.00920	19.98435	.002510731
4.504166	309.2672	7.999175	20.01096	20.00484	.002806444
4.512500	309.8452	7.998935	20.00066	19.99701	.003124563
4.520834	310.4242	7.998838	20.00504	20.00964	.003260366
4.529167	311.0042	7.998579	19.99732	20.00061	.003299246
4.537500	311.5824	7.998384	19.96194	20.00347	.003236054
4.545833	312.1628	7.998194	20.02297	20.01141	.003055130
4.554167	312.7410	7.998194	19.99538	19.98967	.003152565
4.562500	313.3205	7.998139	19.99546	20.00030	.004018912
4.570833	313.8984	7.997642	20.01022	19.98431	.005882072
4.579167	314.4763	7.997268	20.00284	20.00266	.008639179
4.587500	315.0558	7.997212	19.99633	20.01391	0.01201873
4.595833	315.6336	7.997260	19.99831	19.99572	0.01560674
4.604166	316.2120	7.997216	19.99994	20.02028	0.01899461
4.612500	316.7908	7.997407	19.98211	19.99937	0.02210272
4.620834	317.3690	7.997106	20.01418	19.99055	0.02507250
4.629166	317.9484	7.995318	20.01678	20.01325	0.02771149
4.637500	318.5281	7.992242	19.99676	19.99192	0.02980306
4.645834	319.1056	7.988379	20.00713	19.98216	0.03139541
4.654167	319.6850	7.984512	19.98673	20.01452	0.03250667
4.662500	320.2646	7.981110	19.98954	19.99542	0.03299339
4.670833	320.8442	7.978741	19.99465	20.00111	0.03277689
4.679167	321.4235	7.977488	20.01145	20.00036	0.03180101
4.687500	322.0048	7.975835	19.99346	19.99594	0.02994596
4.695833	322.5847	7.974228	20.00733	20.00428	0.02716102
4.704167	323.1612	7.972984	20.00463	19.98821	0.02370228
4.712500	323.7410	7.971978	20.00266	19.99712	0.02004151
4.720833	324.3204	7.971079	20.00794	19.99960	0.01660789
4.729166	324.8983	7.970515	19.99554	20.00690	0.01375809
4.737500	325.4772	7.969952	19.99641	20.00681	0.01156690
4.745834	326.0568	7.969464	19.98200	20.00525	.009745326
4.754166	326.6391	7.969250	19.99348	19.99703	.008053689
4.762500	327.2173	7.968920	20.00827	19.99834	.006605636
4.770834	327.7971	7.968628	20.03040	19.98739	.005572315
4.779167	328.3756	7.968310	19.97991	19.99082	.004837424
4.787500	328.9568	7.968078	20.00282	20.01070	.004286096
4.795833	329.5351	7.967981	20.01485	20.00536	.003947575
4.804167	330.1138	7.967450	19.98570	20.01556	.003785470
4.812500	330.6921	7.967696	19.97884	19.99451	.003646237
4.820833	331.2720	7.968018	19.99431	19.98789	.003565879
4.829167	331.8534	7.967966	20.01678	20.01094	.003541074
4.837500	332.4347	7.967406	20.00430	19.99125	.003576012
4.845833	333.0123	7.966964	20.00860	20.01039	.003675060
4.854166	333.5914	7.966644	20.00622	20.00063	.003861414
4.862500	334.1721	7.966489	19.99800	19.99750	.004112238
4.870834	334.7524	7.966015	19.99240	19.99490	.004306167
4.879166	335.3326	7.965805	19.98312	20.01240	.004623194
4.887500	335.9133	7.965765	20.00104	20.00226	.004947197
4.895834	336.4934	7.965610	20.00601	20.00323	.005021118
4.904167	337.0755	7.965295	20.00585	20.00262	.004903201
4.912500	337.6548	7.964970	19.99862	19.98438	.004675858
4.920833	338.2363	7.964586	19.99934	20.00737	.004464650
4.929167	338.8144	7.964163	19.99840	19.98891	.004328876
4.937500	339.3985	7.963871	20.01438	20.00876	.004170156
4.945833	339.9799	7.963580	20.00516	20.00216	.004028108
4.954167	340.5589	7.963138	19.97537	20.00730	.003924359
4.962500	341.1409	7.963111	20.00362	19.99646	.003753700
4.970833	341.7222	7.962819	20.00200	20.00146	.003503666
4.979166	342.3018	7.962780	19.99378	19.99941	.003206918
4.987500	342.8848	7.962850	20.00733	19.99055	.002895346
4.995834	343.4652	7.962710	20.00179	19.99875	.002633525
5.004166	344.0449	7.962454	20.00915	20.00592	.002450531
5.012500	344.6291	7.962282	19.98804	19.99955	.002396500
5.020834	345.2109	7.962105	19.99272	19.99872	.002428062
5.029167	345.7888	7.961994	19.99914	20.01945	.002593738
5.037500	346.3700	7.961882	20.00405	19.99401	.002693435
5.045833	346.9526	7.961758	20.01143	19.99636	.002740740
5.054167	347.5326	7.961788	20.00821	19.97915	.002877420
5.062500	348.1116	7.961594	19.99052	20.00595	.002973716
5.070833	348.6950	7.961505	20.00191	19.99297	.003066691
5.079167	349.2763	7.961196	20.00288	20.00669	.003294440
5.087500	349.8572	7.960831	19.97749	20.01529	.003603366
5.095833	350.4387	7.960422	20.00620	20.01589	.003832640
5.104166	351.0212	7.960193	19.99737	19.98602	.003951150
5.112500	351.6027	7.960381	20.00777	19.98606	.004046032
5.120834	352.1828	7.960171	20.00590	20.00051	.004098080
5.129166	352.7620	7.959918	19.99830	20.00379	.003999163
5.137500	353.3459	7.959679	20.01314	19.99666	.003806525
5.145834	353.9278	7.959210	19.98848	20.00587	.003499520
5.154167	354.5082	7.958579	19.99368	20.00050	.003166808
5.162500	355.0915	7.958270	19.99070	20.00630	.002914796
5.170833	355.6718	7.958353	20.00348	19.99391	.002789993
5.179167	356.2536	7.958258	20.01266	20.00326	.002757052
5.187500	356.8350	7.958058	19.99976	19.99727	.002643460
5.195833	357.4148	7.958110	20.00000	19.99583	.002468004
5.204167	357.9945	7.958100	20.00816	19.99767	.002285378
5.212500	358.5750	7.958204	19.99585	20.00338	.002091201
5.220833	359.1560	7.958228	20.00332	20.01110	.001957410
5.229166	359.7368	7.958070	19.98379	19.98087	.002050098
5.237500	360.3187	7.957749	19.99291	20.00538	.002376194
5.245834	360.8990	7.957490	20.00856	20.00299	.002712990
5.254166	361.4789	7.957350	20.00528	19.97653	.003005088
5.262500	362.0600	7.957158	19.99640	20.01089	.003376461
5.270834	362.6380	7.957038	20.00428	19.98810	.003740625
5.279168	363.2196	7.956925	20.01363	20.00402	.004094844
5.287500	363.8010	7.956778	19.99979	19.98788	.004351102
5.295832	364.3794	7.956454	19.98147	20.00527	.004486734
5.304168	364.9602	7.956009	19.98656	20.02498	.004575880
5.312500	365.5400	7.955579	20.01652	19.97659	.004655270
5.320832	366.1189	7.955425	19.99424	19.99769	.004700024
5.329168	366.6997	7.955002	19.99982	19.99773	.004725516
5.337500	367.2775	7.954758	20.00596	20.00433	.004702456
5.345832	367.8576	7.954366	20.00584	19.99448	.004648625
5.354166	368.4360	7.954113	20.01086	20.00579	.004534594
5.362500	369.0150	7.953936	19.97961	20.00771	.004350659
5.370834	369.5950	7.953706	19.99120	20.01311	.004154308
5.379166	370.1742	7.953316	20.00348	20.00386	.003998162
5.387500	370.7528	7.953262	19.99791	19.98849	.003962864
5.395834	371.3330	7.953042	20.00308	20.00152	.003927567
5.404168	371.9112	7.952894	20.00731	19.99848	.003936356
5.412500	372.4918	7.952728	20.00462	19.99901	.003924485
5.420832	373.0708	7.952490	20.00328	20.00688	.003943579
5.429168	373.6500	7.952382	19.99572	20.01625	.003990266
5.437500	374.2317	7.952060	19.99454	20.00083	.003938458
5.445832	374.8112	7.951890	20.00327	19.99750	.003755004
5.454168	375.3932	7.951456	19.99413	20.00305	.003574243
5.462500	375.9738	7.951232	20.00766	20.00040	.003400648
5.470832	376.5532	7.950825	20.00777	19.99655	.003281800
5.479166	377.1310	7.950634	19.99428	19.99361	.003192253
5.487500	377.7114	7.950444	20.00830	19.99226	.003157799
5.495834	378.2925	7.950171	19.99838	19.99567	.003329790
5.504166	378.8734	7.950070	19.98268	20.01400	.003602230
5.512500	379.4522	7.950218	20.00354	19.99289	.003909059
5.520834	380.0304	7.950300	20.00199	19.99287	.004141653
5.529168	380.6124	7.950328	20.00761	20.00010	.004287131
5.537500	381.1921	7.950071	19.99020	19.98148	.004359534
5.545832	381.7724	7.949739	20.00441	20.00288	.004434727
5.554168	382.3535	7.949526	20.00799	19.99633	.004519766
5.562500	382.9343	7.948851	20.00873	19.99424	.004532053
5.570832	383.5156	7.948038	19.98614	19.99951	.004625076
5.579168	384.0947	7.947419	19.99016	20.01506	.004842034
5.587500	384.6752	7.947008	20.00127	19.98761	.004909700
5.595832	385.2564	7.946944	19.99313	20.00714	.004787363
5.604166	385.8384	7.946968	20.00668	20.00398	.004531550
5.612500	386.4179	7.946974	19.99958	19.99698	.004220280
5.620834	386.9975	7.946794	20.01034	19.99896	.003962290
5.629166	387.5794	7.946765	20.00943	19.99777	.003620981
5.637500	388.1590	7.946675	20.00155	20.01092	.003292395
5.645834	388.7412	7.946059	19.98592	20.01134	.003196115
5.654168	389.3210	7.945785	20.00208	20.00633	.003281283
5.662500	389.9028	7.945826	19.98594	19.99516	.003441680
5.670832	390.4822	7.945686	20.00112	20.00456	.003612552
5.679168	391.0637	7.945563	20.00316	19.99856	.003709828
5.687500	391.6459	7.945181	20.01170	19.99272	.003791920
5.695832	392.2280	7.944929	20.02110	20.00198	.003921690
5.704168	392.8075	7.944810	19.98589	20.00006	.004011743
5.712500	393.3894	7.944442	20.00018	20.01162	.003929182
5.720832	393.9685	7.943970	19.99466	19.99784	.003885769
5.729166	394.5508	7.943874	19.97914	20.00529	.003988916
5.737500	395.1295	7.943700	20.01255	19.99893	.004145483
5.745834	395.7114	7.943690	19.99381	20.00500	.004281231
5.754166	396.2930	7.943460	19.99919	19.98257	.004248904
5.762500	396.8729	7.943047	20.01127	20.00355	.004172538
5.770834	397.4545	7.942639	20.00789	19.97780	.004180619
5.779168	398.0356	7.942536	20.00716	20.00685	.004066925
5.787500	398.6172	7.942426	19.98735	20.00870	.003888679
5.795832	399.1963	7.942218	19.99175	19.99084	.003845570
5.804168	399.7776	7.941808	19.98280	20.00128	.003834766
5.812500	400.3601	7.941260	20.00919	19.99941	.003873248
5.820832	400.9413	7.941078	20.01316	20.01538	.003932092
5.829168	401.5226	7.941189	20.00511	19.95651	.004008186
5.837500	402.1032	7.940836	19.99796	19.99424	.004153350
5.845832	402.6833	7.940689	20.02068	20.01300	.004435092
5.854166	403.2662	7.940784	19.98338	20.00669	.004671124
5.862500	403.8456	7.940503	19.98598	20.00554	.004804674
5.870834	404.4283	7.940309	19.99894	20.00488	.004860634
5.879166	405.0130	7.939978	19.99432	19.99984	.004775562
5.887500	405.5922	7.939589	20.00140	20.00189	.004673227
5.895834	406.1750	7.939031	20.00035	19.99691	.004629430
5.904168	406.7555	7.938605	20.01539	19.99456	.004495230
5.912500	407.3370	7.938001	20.00362	20.00517	.004305853
5.920832	407.9186	7.937653	20.00012	20.00582	.004170447
5.929168	408.5006	7.937546	19.99468	20.00208	.004040231
5.937500	409.0828	7.937255	20.00111	20.01013	.003875944
5.945832	409.6623	7.937218	19.99092	20.01225	.003639595
5.954168	410.2446	7.937403	20.00253	19.99786	.003357110
5.962500	410.8274	7.937442	20.00699	20.00276	.003054478
5.970832	411.4093	7.937278	19.99834	19.99129	.002892976
5.979166	411.9897	7.937153	19.99996	19.99816	.002804856
5.987500	412.5724	7.937074	20.00628	19.99775	.002854059
5.995834	413.1528	7.936658	20.01024	20.00840	.003123272
6.004166	413.7355	7.936204	19.97801	20.01408	.003456378
6.012500	414.3170	7.936072	19.99742	19.99226	.003881216
6.020834	414.8970	7.935880	20.00462	20.00132	.004420183
6.029168	415.4795	7.935894	19.98100	20.00130	.004820202
6.037500	416.0611	7.935584	20.00223	19.97679	.005111386
6.045832	416.6425	7.935268	20.01232	19.99772	.005359340
6.054168	417.2234	7.935074	20.02049	19.99586	.005539756
6.062500	417.8060	7.934638	19.99278	19.99861	.005631007
6.070832	418.3874	7.934114	20.00511	19.98896	.005647472
6.079168	418.9713	7.933780	19.97474	20.00658	.005828120
6.087500	419.5536	7.933087	20.00267	19.99614	.006009736
6.095832	420.1372	7.932797	19.99319	19.99926	.006110668
6.104166	420.7184	7.932551	20.00074	19.98962	.006165585
6.112500	421.3012	7.932088	20.01101	19.98996	.006269600
6.120834	421.8813	7.931937	20.01762	20.00627	.006381380
6.129166	422.4648	7.931505	20.00275	20.00271	.006354287
6.137500	423.0450	7.931446	19.98470	19.99538	.006240276
6.145834	423.6296	7.930968	20.00329	20.02152	.006196174
6.154168	424.2110	7.930451	19.98661	20.00508	.006109570
6.162500	424.7936	7.930255	19.99612	19.99544	.005942742
6.170832	425.3762	7.929976	20.00521	19.99860	.005846084
6.179168	425.9572	7.929334	19.99137	20.00215	.005809247
6.187500	426.5390	7.928706	20.02421	19.99818	.005776000
6.195832	427.1221	7.928412	20.00044	20.00654	.005744613
6.204168	427.7048	7.928244	19.99594	20.02252	.005705914
6.212500	428.2852	7.927968	19.99109	19.98907	.005553272
6.220832	428.8705	7.927468	20.00976	20.00375	.005328808
6.229166	429.4530	7.927500	19.99402	20.00922	.005186736
6.237500	430.0369	7.927530	19.98945	19.99557	.005123348
6.245834	430.6197	7.926905	19.99559	19.99703	.004998394
6.254166	431.2016	7.926639	20.01744	20.00022	.004937438
6.262500	431.7826	7.926220	19.99552	19.99529	.005035604
6.270834	432.3656	7.925876	20.00833	20.00299	.005172961
6.279168	432.9490	7.925690	19.99806	19.98878	.005212274
6.287500	433.5343	7.925482	19.98896	19.99996	.005154919
6.295832	434.1172	7.925345	19.99776	20.01004	.005205826
6.304168	434.7016	7.924861	19.99835	19.99967	.005280880
6.312500	435.2857	7.924490	20.01031	20.00062	.005251998
6.320832	435.8684	7.924106	19.99844	19.98369	.005278650
6.329168	436.4500	7.923642	19.99619	20.00232	.005307422
6.337500	437.0302	7.923295	20.00804	19.98658	.005302760
6.345832	437.6145	7.923105	20.01502	19.99488	.005297758
6.354166	438.1982	7.923066	19.99106	20.00518	.005220470
6.362500	438.7810	7.922801	19.98308	20.00707	.005111775
6.370834	439.3664	7.922512	19.99696	20.00430	.004906644
6.379166	439.9482	7.922074	19.98956	19.99795	.004627147
6.387500	440.5317	7.921589	20.01349	19.99116	.004260689
6.395834	441.1140	7.921205	20.00262	19.99564	.003878921
6.404166	441.6985	7.921009	20.00196	19.99924	.003628891
6.412500	442.2818	7.920776	20.01639	19.99684	.003527672
6.420832	442.8639	7.920715	19.99109	20.00618	.003523564
6.429168	443.4464	7.920550	19.98434	20.01621	.003437292
6.437500	444.0312	7.920334	19.99920	20.01559	.003241380
6.445832	444.6150	7.920200	20.00030	20.00395	.002978667
6.454168	445.1968	7.920320	20.01666	19.98411	.002711164
6.462500	445.7806	7.920460	19.99894	19.97877	.002518264
6.470834	446.3639	7.920240	19.99902	20.01628	.002392586
6.479166	446.9470	7.919888	20.01159	19.99738	.002292808
6.487500	447.5329	7.919412	19.98812	20.01877	.002358383
6.495834	448.1157	7.919089	20.01188	20.01504	.002485117
6.504166	448.6988	7.919021	19.97808	20.00833	.002598259
6.512500	449.2832	7.919028	20.00308	19.99711	.002670000
6.520834	449.8670	7.919030	19.99790	19.99268	.002767395
6.529166	450.4506	7.918975	20.00150	20.00039	.002848375
6.537500	451.0329	7.918855	19.99847	20.00126	.002717062
6.545832	451.6188	7.918952	20.01188	19.98872	.002485256
6.554168	452.2020	7.918591	19.99912	19.95851	.002251762
6.562500	452.7866	7.918174	20.00781	19.99211	.002154134
6.570832	453.3720	7.917834	20.00401	19.99975	.002184734
6.579168	453.9549	7.917731	19.99479	20.00470	.002280121
6.587500	454.5398	7.917741	19.98916	19.99984	.002425056
6.595834	455.1241	7.917462	19.99464	20.01067	.002534859
6.604166	455.7086	7.917524	19.98979	19.99750	.002649456
6.612500	456.2924	7.917532	19.99906	19.99585	.002818565
6.620834	456.8744	7.917576	20.01253	20.00051	.002885921
6.629166	457.4606	7.917401	20.01233	19.99720	.002884735
6.637500	458.0466	7.917175	19.99819	20.00494	.002925217
6.645834	458.6317	7.917038	20.00402	20.00957	.003065442
6.654166	459.2183	7.916660	20.00107	19.99810	.003205020
6.662500	459.8004	7.916425	19.99250	20.01313	.003237141
6.670832	460.3856	7.916156	19.97874	19.99225	.003259893
6.679168	460.9688	7.915779	20.01252	20.02238	.003253891
6.687500	461.5540	7.915495	20.00574	19.98311	.003234086
6.695832	462.1387	7.915331	19.99987	19.98912	.003101489
6.704168	462.7234	7.915264	20.00722	20.00846	.002907387
6.712500	463.3084	7.915058	20.00996	20.00906	.002642980
6.720834	463.8941	7.914929	19.99404	19.99056	.002301935
6.729166	464.4774	7.914897	19.98726	20.01102	.002009783
6.737500	465.0616	7.914844	19.99114	20.00758	.001768292
6.745834	465.6447	7.914880	20.00506	20.00966	.001491140
6.754166	466.2290	7.914612	19.99012	19.98742	.001218268
6.762500	466.8154	7.914534	20.00659	20.00715	.001003564
6.770834	467.3982	7.914366	20.00617	19.98514	9.57608E-4
6.779166	467.9824	7.914406	20.00332	20.01178	9.90108E-4
6.787500	468.5666	7.914500	20.00889	19.99408	.001063146
6.795832	469.1520	7.914482	19.97644	20.01239	.001232455
6.804168	469.7370	7.914310	20.00711	20.00353	.001484960
6.812500	470.3234	7.914310	19.99740	19.99351	.001718924
6.820832	470.9074	7.914360	19.99553	20.00357	.001926471
6.829168	471.4930	7.914546	20.01272	19.99382	.002159436
6.837500	472.0780	7.914335	20.00448	19.98629	.002364436
6.845834	472.6629	7.913960	19.99669	20.00931	.002624865
6.854166	473.2491	7.913720	20.00963	19.99087	.002888012
6.862500	473.8342	7.913534	19.99811	20.00884	.003123072
6.870834	474.4188	7.913075	19.99085	19.99746	.003306492
6.879166	475.0044	7.912896	19.99689	19.99395	.003448704
6.887500	475.5894	7.912680	19.98578	20.00420	.003543365
6.895834	476.1739	7.912402	20.00866	19.98443	.003606672
6.904166	476.7571	7.912374	20.00717	19.98006	.003579925
6.912500	477.3443	7.912174	20.00744	20.01444	.003617422
6.920832	477.9305	7.912018	20.00526	19.99983	.003763300
6.929168	478.5138	7.911782	20.00018	19.99122	.003975950
6.937500	479.1004	7.911478	19.98809	19.99754	.004191142
6.945832	479.6856	7.911319	19.98614	20.00495	.004436761
6.954168	480.2702	7.911280	20.00459	20.00832	.004666380
6.962500	480.8534	7.911112	20.00454	20.00780	.004905350
6.970834	481.4396	7.910974	19.99794	19.98361	.005186969
6.979166	482.0254	7.910420	20.01250	20.00483	.005387963
6.987500	482.6100	7.909828	20.00636	19.99200	.005474370
6.995834	483.1960	7.909366	19.99141	20.00603	.005472460
7.004166	483.7817	7.908874	19.99126	20.01998	.005480499
7.012500	484.3665	7.908489	19.99722	20.00691	.005566568
7.020834	484.9512	7.908310	20.00776	19.99644	.005545945
7.029166	485.5390	7.907986	19.98266	20.01024	.005257297
7.037500	486.1261	7.907610	20.00008	19.99120	.004899863
7.045832	486.7104	7.907307	20.00878	19.99280	.004467385
7.054168	487.2972	7.907159	20.01722	19.99098	.003963306
7.062500	487.8822	7.907099	20.00680	20.01572	.003481262
7.070832	488.4674	7.906880	19.98859	20.00833	.003031446
7.079168	489.0546	7.906361	19.99933	19.99774	.002646650
7.087500	489.6410	7.906032	19.99244	20.00936	.002447920
7.095834	490.2256	7.906322	19.99537	20.04656	.002299229
7.104166	490.8112	7.906398	20.00268	19.94796	.002217224
7.112500	491.3967	7.906160	20.00825	20.01126	.002156943
7.120834	491.9810	7.906056	20.00278	20.00350	.002060428
7.129166	492.5670	7.906110	20.00606	19.99351	.001980094
7.137500	493.1540	7.906068	20.01119	19.99477	.001717720
7.145834	493.7416	7.906151	19.97774	19.99984	9.95780E-4
7.154166	494.3270	7.905824	19.99711	20.00974	4.44363E-5
7.162500	494.9130	7.905557	19.98672	19.99998	-7.8946E-4
7.170832	495.4979	7.905201	20.00868	20.00911	-1.6461E-3
7.179168	496.0830	7.904919	20.01063	19.98551	-2.5978E-3
7.187500	496.6683	7.905054	20.00818	19.99420	-3.7295E-3
7.195832	497.2560	7.905061	20.00529	20.00140	-4.7463E-3
7.204168	497.8404	7.905079	19.99389	19.99943	-5.5863E-3
7.212500	498.4297	7.905968	19.99918	20.01130	-6.1720E-3
7.220834	499.0152	7.907372	19.98742	19.98998	-6.7132E-3
7.229166	499.6008	7.908184	19.98893	20.01037	-7.1325E-3
7.237500	500.1863	7.908850	20.01346	19.99906	-7.4195E-3
7.245834	500.7732	7.908976	19.99509	19.99714	-7.4042E-3
7.254166	501.3582	7.909954	20.00895	19.99708	-6.8830E-3
7.262500	501.9444	7.910584	20.00752	19.98546	-6.0008E-3
7.270834	502.5315	7.910892	20.00276	20.00490	-4.8683E-3
7.279166	503.1166	7.910645	20.00228	20.00549	-3.3445E-3
7.287500	503.7066	7.910657	19.98814	19.99922	-1.7378E-3
7.295832	504.2912	7.910720	19.98395	20.00816	-3.8523E-4
7.304168	504.8781	7.911036	20.00453	20.00152	7.13637E-4
7.312500	505.4634	7.911216	20.00391	20.00413	.001554631
7.320832	506.0491	7.910918	20.00420	19.99730	.002403900
7.329168	506.6363	7.910270	20.00421	19.99300	.003070589
7.337500	507.2239	7.909854	20.00735	19.99600	.003432340
7.345834	507.8110	7.909194	20.00370	20.00114	.003592784
7.354166	508.3947	7.908916	19.98882	20.00665	.003830811
7.362500	508.9835	7.908679	19.98803	19.99706	.004099862
7.370834	509.5711	7.908472	19.99460	20.02224	.004262840
7.379166	510.1584	7.908384	20.01459	19.98340	.004222945
7.387500	510.7428	7.908306	19.98979	19.99603	.003971289
7.395834	511.3281	7.908163	19.99999	19.99453	.003580141
7.404166	511.9131	7.908100	20.02197	19.99888	.003131538
7.412500	512.5000	7.907980	19.99975	19.98489	.002670400
7.420832	513.0889	7.907580	19.98211	19.99388	.002312488
7.429168	513.6761	7.907105	19.99944	20.02024	.002096130
7.437500	514.2634	7.906924	20.00406	19.99246	.001873379
7.445832	514.8496	7.906926	19.99605	20.00762	.001664696
7.454168	515.4350	7.906878	20.00301	19.97825	.001502622
7.462500	516.0206	7.906651	20.00355	19.99932	.001326141
7.470834	516.6074	7.906841	20.00576	19.98523	.001136324
7.479166	517.1959	7.906944	20.00081	20.00487	8.34526E-4
7.487500	517.7837	7.907113	19.99061	19.99638	4.46217E-4
7.495834	518.3720	7.906934	19.99783	20.00900	1.69426E-4
7.504166	518.9563	7.906884	19.99021	20.00217	1.41946E-4
7.512500	519.5406	7.906962	20.01538	20.01420	4.00127E-4
7.520834	520.1298	7.906832	19.98103	19.98788	7.93476E-4
7.529166	520.7160	7.906749	20.02326	19.99335	.001150569
7.537500	521.3016	7.906641	20.00168	19.98098	.001548950
7.545832	521.8906	7.906792	20.00571	20.00349	.001937660
7.554168	522.4740	7.907066	19.99108	20.01110	.002269583
7.562500	523.0611	7.907001	19.99972	20.01008	.002521324
7.570832	523.6478	7.906806	19.98995	19.99843	.002696797
7.579168	524.2350	7.906293	19.99184	20.00812	.002821634
7.587500	524.8218	7.905658	19.99410	19.99304	.002840572
7.595834	525.4084	7.905289	20.01833	20.01109	.002817270
7.604166	525.9937	7.905200	20.01313	19.98528	.002786828
7.612500	526.5826	7.905022	19.99601	20.01147	.002799084
7.620834	527.1692	7.904939	19.99768	20.00633	.002794108
7.629166	527.7555	7.904682	19.99271	19.99611	.002520908
7.637500	528.3419	7.904600	19.99569	20.00805	.002100980
7.645834	528.9300	7.904639	19.99610	20.00245	.001644296
7.654166	529.5142	7.904687	20.00866	20.01359	.001235202
7.662500	530.1015	7.904694	19.99839	19.99288	9.85771E-4
7.670832	530.6886	7.904614	20.00466	19.98752	8.64907E-4
7.679168	531.2747	7.904528	20.00706	20.00025	8.42628E-4
7.687500	531.8620	7.904242	20.01185	19.99782	7.89804E-4
7.695832	532.4468	7.904365	19.98594	19.99335	6.87153E-4
7.704168	533.0346	7.904540	19.99204	20.01300	6.51204E-4
7.712500	533.6223	7.904488	19.98846	20.00198	6.18301E-4
7.720834	534.2089	7.904420	19.99996	19.98593	6.08763E-4
7.729166	534.7959	7.904239	20.00188	19.98763	5.23287E-4
7.737500	535.3840	7.904300	20.01041	19.99239	4.44728E-4
7.745834	535.9695	7.904039	20.01069	19.99506	4.16671E-4
7.754166	536.5550	7.903985	20.00002	19.99483	3.93455E-4
7.762500	537.1412	7.904157	19.99215	20.01806	4.94697E-4
7.770834	537.7280	7.904051	19.99599	19.99521	6.24140E-4
7.779166	538.3144	7.904225	19.99579	20.01146	6.82118E-4
7.787500	538.9008	7.904124	19.99516	19.98371	7.56459E-4
7.795832	539.4898	7.904251	20.01616	20.00074	8.97749E-4
7.804168	540.0778	7.904253	20.00112	19.98652	.001139955
7.812500	540.6652	7.904080	20.00223	20.01306	.001301800
7.820832	541.2530	7.903980	19.99881	20.00542	.001483806
7.829168	541.8398	7.903826	19.99745	20.00896	.001785780
7.837500	542.4284	7.903720	19.99144	20.00813	.001955985
7.845834	543.0156	7.903668	20.00570	20.00812	.002078328
7.854166	543.6045	7.903528	19.99705	19.99806	.002086139
7.862500	544.1921	7.903261	20.00775	20.00716	.002087222
7.870834	544.7812	7.902906	19.99992	19.99991	.002007264
7.879166	545.3672	7.902756	20.00156	20.00628	.001908013
7.887500	545.9555	7.902795	19.99283	20.00240	.001878193
7.895834	546.5434	7.902478	20.00135	19.99599	.001863789
7.904166	547.1308	7.902441	19.99628	20.00397	.001803608
7.912500	547.7176	7.902451	19.99863	19.99886	.001720824
7.920832	548.3062	7.902572	20.00247	19.99336	.001559581
7.929168	548.8934	7.902505	19.98878	19.99665	.001362491
7.937500	549.4806	7.902572	20.01503	19.98827	.001120244
7.945832	550.0688	7.902457	20.00235	19.98582	8.89549E-4
7.954168	550.6558	7.902190	20.00196	19.99045	7.62484E-4
7.962500	551.2443	7.901885	20.00414	20.00629	6.46575E-4
7.970834	551.8299	7.901852	19.99291	20.00145	6.29155E-4
7.979166	552.4168	7.901798	20.00480	20.00005	6.97146E-4
7.987500	553.0033	7.901892	19.98320	20.00785	8.44691E-4
7.995834	553.5886	7.901892	19.99257	19.99051	9.95148E-4
8.004166	554.1757	7.901928	20.01483	20.00661	.001104891
8.012500	554.7651	7.902164	20.01932	19.98641	.001154558
8.020832	555.3507	7.902222	19.99276	20.00931	.001215256
8.029166	555.9400	7.902097	19.99976	20.00751	.001336416
8.037500	556.5278	7.901936	20.00218	20.00871	.001459451
8.045834	557.1137	7.901778	19.98092	20.01379	.001516385
8.054168	557.7020	7.901545	19.99596	19.99855	.001658201
8.062500	558.2912	7.901195	20.00458	19.99744	.001829488
8.070832	558.8752	7.901059	20.01113	20.00589	.001999600
8.079166	559.4618	7.901032	20.01354	19.99453	.002169350
8.087500	560.0514	7.900888	19.97970	19.99857	.002238664
8.095834	560.6384	7.900595	20.00564	20.01127	.002181002
8.104168	561.2257	7.900537	19.99452	19.99909	.002094473
8.112500	561.8150	7.900826	20.00359	19.99777	.001962422
8.120834	562.4014	7.900757	19.99415	20.01376	.001747794
8.129166	562.9889	7.900522	20.00421	19.98880	.001521343
8.137500	563.5778	7.900282	19.99228	20.00154	.001398588
8.145832	564.1630	7.900118	20.01514	19.98276	.001324720
8.154166	564.7496	7.899976	20.00456	19.99695	.001260852
8.162500	565.3373	7.899951	19.99544	19.99112	.001250034
8.170834	565.9230	7.899829	19.99452	20.00004	.001339516
8.179168	566.5118	7.899761	19.99354	20.00063	.001395472
8.187500	567.0988	7.899882	20.00858	19.99938	.001230931
8.195832	567.6853	7.899976	19.97642	20.00689	9.55198E-4
8.204166	568.2735	7.899871	20.02060	19.97855	7.34727E-4
8.212500	568.8581	7.899824	19.99970	20.00027	6.16111E-4
8.220834	569.4466	7.899747	20.01381	19.99687	5.84951E-4
8.229168	570.0351	7.899526	19.98662	19.99269	5.97786E-4
8.237500	570.6228	7.899194	19.99425	20.00730	6.23290E-4
8.245834	571.2113	7.899200	20.00673	20.00148	6.22242E-4
8.254166	571.7990	7.899488	19.99832	20.01197	7.11699E-4
8.262500	572.3868	7.899726	19.98050	19.99002	6.98023E-4
8.270832	572.9717	7.899719	20.00034	20.00377	5.49725E-4
8.279166	573.5592	7.899626	20.02040	19.99540	4.10896E-4
8.287500	574.1468	7.899401	20.00880	20.00801	3.54890E-4
8.295834	574.7349	7.899351	20.00592	19.99428	3.33837E-4
8.304168	575.3238	7.899160	19.99955	20.00735	3.59160E-4
8.312500	575.9112	7.899293	19.98459	20.03352	4.56055E-4
8.320832	576.4970	7.899091	19.99072	19.99098	6.33588E-4
8.329166	577.0832	7.899162	19.99845	19.99625	8.07016E-4
8.337500	577.6700	7.899370	19.99524	20.00239	9.03220E-4
8.345834	578.2579	7.899494	20.00957	20.00038	.001018916
8.354168	578.8450	7.899331	20.00846	19.99592	.001266623
8.362500	579.4330	7.899168	20.01063	20.00270	.001554754
8.370834	580.0205	7.898926	19.99311	20.00354	.001798097
8.379166	580.6108	7.898919	19.99445	20.01897	.002043423
8.387500	581.1988	7.898937	19.99574	19.99273	.002112548
8.395832	581.7850	7.898824	19.99265	20.00072	.002150936
8.404166	582.3731	7.898653	20.01578	20.00034	.002219685
8.412500	582.9610	7.898500	19.98982	19.98870	.002220963
8.420834	583.5480	7.897906	20.00565	20.01190	.002105032
8.429168	584.1384	7.897540	20.00270	19.99598	.001962444
8.437500	584.7274	7.897430	19.98566	19.99391	.001808488
8.445832	585.3128	7.897330	20.00300	20.00892	.001677162
8.454166	585.9008	7.897512	20.00480	20.00059	.001539354
8.462500	586.4875	7.897708	19.99262	19.99813	.001347927
8.470834	587.0762	7.897699	19.99569	20.00466	.001077713
8.479168	587.6648	7.897616	20.00112	20.00769	7.94497E-4
8.487500	588.2494	7.897548	20.01164	19.98452	4.70178E-4
8.495834	588.8404	7.897450	20.00319	19.99543	1.99751E-4
8.504166	589.4278	7.897360	20.02397	20.00237	1.20212E-4
8.512500	590.0170	7.897345	19.97342	19.99128	1.59598E-4
8.520832	590.6059	7.897352	19.99352	20.02456	2.81811E-4
8.529166	591.1924	7.897278	20.00702	20.01052	4.37719E-4
8.537500	591.7804	7.897326	19.98986	19.97769	5.74908E-4
8.545834	592.3684	7.897421	19.99779	20.00716	6.94126E-4
8.554168	592.9554	7.897359	20.02001	20.00336	7.41835E-4
8.562500	593.5448	7.897506	19.99749	19.99194	7.12381E-4
8.570832	594.1343	7.897516	19.99334	19.99284	6.79939E-4
8.579166	594.7202	7.897352	19.99602	19.99946	6.88000E-4
8.587500	595.3081	7.897255	20.00207	20.00627	7.07357E-4
8.595834	595.8979	7.897125	20.00885	20.00208	7.35716E-4
8.604168	596.4849	7.896906	19.98866	20.00006	8.96922E-4
8.612500	597.0735	7.896638	19.99651	19.99309	.001066793
8.620834	597.6601	7.896616	20.00177	20.00922	.001233786
8.629166	598.2470	7.896800	20.01323	19.99305	.001349246
8.637500	598.8362	7.896914	20.00009	19.98752	.001342275
8.645832	599.4248	7.896919	20.00408	20.01249	.001224402
8.654166	600.0113	7.896861	19.99384	19.99944	.001141400
8.662500	600.6006	7.896908	19.99322	20.01099	.001047597
8.670834	601.1890	7.896512	20.00355	19.99846	9.48441E-4
8.679168	601.7776	7.896375	20.00105	19.99523	9.32259E-4
8.687500	602.3650	7.896064	19.99752	19.99042	.001118134
8.695832	602.9524	7.895997	20.00148	20.00032	.001394304
8.704166	603.5376	7.896070	20.00632	19.99812	.001627092
8.712500	604.1272	7.896243	19.99235	20.00434	.001764102
8.720834	604.7144	7.896170	19.99819	20.00202	.001797259
8.729168	605.3037	7.896155	19.99994	19.99786	.001767803
8.737500	605.8928	7.896151	19.99654	19.99585	.001479101
8.745834	606.4802	7.896075	19.99896	20.01496	.001199692
8.754166	607.0671	7.895684	20.00531	19.98664	.001060452
8.762500	607.6549	7.895361	20.00204	20.00870	.001103206
8.770832	608.2430	7.895162	20.00948	19.99083	.001222160
8.779166	608.8305	7.895000	19.99967	20.00034	.001333970
8.787500	609.4192	7.895035	20.00406	19.99781	.001359472
8.795834	610.0061	7.894966	19.98945	20.00496	.001264715
8.804168	610.5952	7.895328	19.99308	19.99764	.001280754
8.812500	611.1840	7.895681	19.99383	19.99899	.001577486
8.820832	611.7730	7.895587	20.00044	19.99652	.002010307
8.829166	612.3604	7.895228	20.00128	20.00367	.002442299
8.837500	612.9495	7.894952	20.00758	19.99289	.002781892
8.845834	613.5385	7.894864	20.01311	19.99946	.003159968
8.854168	614.1276	7.894652	19.99319	19.99496	.003546002
8.862500	614.7152	7.894828	19.99570	20.01241	.003921579
8.870834	615.3035	7.894790	19.98480	19.98939	.004407422
8.879166	615.8915	7.893975	20.01050	20.01097	.004741202
8.887500	616.4791	7.892956	20.00284	19.99216	.004794238
8.895832	617.0678	7.892278	20.00009	19.99504	.004713506
8.904166	617.6550	7.892390	19.99750	19.99576	.004612262
8.912500	618.2437	7.892280	20.00682	19.99170	.004523129
8.920834	618.8324	7.892188	19.98954	19.99158	.004335582
8.929168	619.4210	7.892094	19.99403	20.00539	.004152821
8.937500	620.0078	7.891610	20.00516	20.00457	.003848381
8.945832	620.5955	7.891375	20.00392	19.99354	.003337938
8.954166	621.1826	7.891359	19.99416	19.99791	.002764096
8.962500	621.7701	7.891166	19.99134	19.99931	.002373425
8.970834	622.3579	7.891009	20.02547	20.00563	.002314448
8.979168	622.9456	7.890810	20.00049	19.99516	.002358982
8.987500	623.5328	7.890790	19.99280	20.03347	.002296403
8.995834	624.1218	7.890662	20.00260	19.99916	.002174728
9.004166	624.7080	7.890595	20.01421	19.98992	.001859429
9.012500	625.2976	7.890391	19.98192	20.00692	.001573655
9.020832	625.8854	7.890372	19.99630	19.99299	.001441622
9.029166	626.4708	7.890402	19.99330	19.99508	.001297511
9.037500	627.0581	7.890368	20.01235	20.01210	.001128093
9.045834	627.6466	7.889893	19.99537	19.98813	.001062878
9.054168	628.2332	7.889837	20.00614	20.00278	.001212040
9.062500	628.8211	7.889739	20.00113	19.98595	.001448379
9.070832	629.4111	7.889947	20.00505	19.99610	.001586496
9.079166	629.9980	7.890178	20.00394	20.00271	.001698735
9.087500	630.5884	7.890089	19.98318	20.00825	.001746437
9.095834	631.1760	7.889942	20.00889	20.00246	.001823314
9.104168	631.7647	7.890001	19.98992	19.99098	.001874210
9.112500	632.3592	7.889868	19.99936	19.99280	.001754201
9.120834	632.9479	7.889430	20.00845	19.99443	.001729298
9.129166	633.5398	7.888762	20.01125	19.99638	.001847596
9.137500	634.1304	7.888746	19.99062	19.99957	.002044504
9.145832	634.7200	7.888570	19.98904	20.00218	.002232788
9.154166	635.3080	7.888726	20.01096	20.00038	.002295210
9.162500	635.8944	7.888722	19.98873	20.01697	.002272768
9.170834	636.4771	7.888550	20.00059	19.99739	.002187563
9.179168	637.0609	7.888620	20.00127	20.00557	.001983757
9.187500	637.6469	7.888739	20.00946	19.98573	.001738820
9.195832	638.2282	7.888462	19.99622	20.00333	.001502422
9.204166	638.8082	7.888218	20.00146	19.99791	.001386059
9.212500	639.3920	7.887971	20.01010	20.02066	.001269759
9.220834	639.9736	7.887769	19.99561	19.99437	.001243690
9.229168	640.5576	7.887597	19.97538	19.99637	.001295586
9.237500	641.1385	7.887597	20.01084	20.01056	.001362649
9.245834	641.7192	7.887780	19.99249	20.01384	.001468411
9.254166	642.3020	7.887735	20.01044	19.99101	.001504058
9.262500	642.8840	7.887569	20.00691	19.98840	.001461116
9.270832	643.4676	7.887612	20.00209	20.01314	.001404970
9.279166	644.0554	7.887804	19.98939	20.01047	.001286749
9.287500	644.6382	7.887839	20.01003	19.99781	.001234853
9.295834	645.2246	7.887563	20.00345	19.99993	.001238012
9.304168	645.8108	7.887226	19.98692	19.99874	.001325979
9.312500	646.3968	7.886868	19.99300	20.00310	.001536167
9.320832	646.9828	7.886882	20.00386	19.99255	.001702897
9.329166	647.5714	7.886858	20.01142	20.00699	.001780924
9.337500	648.1551	7.886602	20.00192	19.98545	.001898305
9.345834	648.7434	7.886804	19.99942	20.01116	.001920811
9.354168	649.3300	7.886800	20.00783	19.99186	.001840935
9.362500	649.9198	7.886726	20.00024	20.00665	.001653408
9.370834	650.5066	7.886663	19.98681	20.00051	.001480152
9.379166	651.0959	7.886374	19.98640	20.00881	.001412816
9.387500	651.6818	7.886054	20.01463	20.00058	.001415782
9.395832	652.2691	7.886020	19.99983	19.99436	.001378263
9.404166	652.8604	7.885772	20.00533	19.99668	.001316508
9.412500	653.4481	7.885910	20.00016	19.99235	.001353110
9.420834	654.0360	7.885982	19.99906	20.00699	.001341247
9.429168	654.6230	7.885970	20.00122	19.99236	.001255435
9.437500	655.2114	7.885922	19.98716	20.00541	.001219559
9.445832	655.8000	7.885653	20.01059	20.01117	.001168297
9.454166	656.3852	7.885544	19.99531	19.99846	.001090496
9.462500	656.9739	7.885674	20.00456	19.98989	.001098588
9.470834	657.5625	7.885634	19.99700	19.99182	.001121636
9.479168	658.1487	7.885522	20.00526	20.00070	.001212538
9.487500	658.7371	7.885416	19.99484	20.01292	.001371614
9.495834	659.3237	7.885445	19.99984	20.00512	.001428102
9.504166	659.9116	7.885266	20.00314	19.99545	.001363026
9.512500	660.4980	7.885026	19.98848	19.99734	.001148660
9.520832	661.0854	7.884982	19.99179	19.99771	9.46789E-4
9.529166	661.6720	7.885004	20.01418	20.00119	7.75742E-4
9.537500	662.2585	7.884872	20.00515	19.99846	3.94604E-4
9.545834	662.8470	7.884916	20.00110	19.98393	-1.9921E-4
9.554168	663.4343	7.884619	20.00255	20.00421	-8.9121E-4
9.562500	664.0204	7.884522	19.99756	19.99416	-1.4457E-3
9.570832	664.6060	7.884582	20.00244	20.01112	-1.8653E-3
9.579166	665.1931	7.884856	19.98281	20.00820	-2.1645E-3
9.587500	665.7780	7.885074	20.01988	19.99429	-2.2861E-3
9.595834	666.3655	7.885100	19.96986	20.00327	-2.2796E-3
9.604168	666.9525	7.885500	20.02699	19.98942	-2.2348E-3
9.612500	667.5384	7.886084	19.99896	19.99120	-2.1059E-3
9.620834	668.1294	7.886811	20.00217	19.99000	-1.9557E-3
9.629166	668.7174	7.887075	20.00194	20.02418	-1.8326E-3
9.637500	669.3042	7.886918	19.99158	19.98787	-1.7010E-3
9.645832	669.8913	7.886703	19.98812	20.00432	-1.4499E-3
9.654166	670.4770	7.886481	19.99492	19.99950	-1.0606E-3
9.662500	671.0651	7.886292	19.99451	20.00532	-6.3053E-4
9.670834	671.6524	7.886151	20.00986	19.98038	-1.8951E-4
9.679168	672.2414	7.886120	20.01756	19.99467	2.78117E-4
9.687500	672.8289	7.885956	19.99772	19.99136	7.79066E-4
9.695832	673.4118	7.886120	19.99899	20.01072	.001148945
9.704166	673.9956	7.886551	19.99872	20.00034	.001276560
9.712500	674.5832	7.886781	19.99400	20.00410	.001326747
9.720834	675.1721	7.886603	19.99103	19.99982	.001396483
9.729168	675.7581	7.886200	20.00191	20.00219	.001384794
9.737500	676.3451	7.886152	20.01606	19.98218	.001409724
9.745834	676.9349	7.886150	20.00426	19.99536	.001570600
9.754166	677.5238	7.885884	19.99730	20.00832	.001758026
9.762500	678.1102	7.885366	19.99489	20.00057	.002055326
9.770832	678.6969	7.885148	19.99984	20.00503	.002398057
9.779166	679.2844	7.885132	19.99309	20.01303	.002585388
9.787500	679.8718	7.884928	19.99570	19.99130	.002532454
9.795834	680.4600	7.885108	19.99516	19.99595	.002330467
9.804168	681.0474	7.885270	20.00989	19.99830	.002259813
9.812500	681.6360	7.885024	20.00314	19.98645	.002151310
9.820832	682.2260	7.884820	20.00952	19.99864	.001969015
9.829166	682.8116	7.884540	19.99968	20.01566	.001737357
9.837500	683.3988	7.884244	20.00063	19.99799	.001657820
9.845834	683.9882	7.884093	19.98778	20.00056	.001714326
9.854168	684.5748	7.883994	19.99993	20.00378	.001722835
9.862500	685.1619	7.884192	19.99498	20.00514	.001692560
9.870834	685.7491	7.883950	20.00204	19.98134	.001585664
9.879166	686.3374	7.883999	20.00728	20.00444	.001469386
9.887500	686.9241	7.883941	20.00619	19.99731	.001401576
9.895832	687.5120	7.883939	20.00270	19.99803	.001364365
9.904166	688.0992	7.883801	19.99191	20.00526	.001375452
9.912500	688.6866	7.883566	20.00414	20.00989	.001461152
9.920834	689.2725	7.883432	19.99291	20.01193	.001652560
9.929168	689.8590	7.883487	20.00105	19.98908	.001859347
9.937500	690.4470	7.883768	19.99628	19.99057	.002065163
9.945832	691.0362	7.883556	19.99988	20.00158	.002373164
9.954166	691.6266	7.883212	20.00690	19.98970	.002763742
9.962500	692.2106	7.883020	19.99739	20.00564	.003250926
9.970834	692.7989	7.882781	20.01688	20.00175	.003689377
9.979168	693.3882	7.882732	19.98734	20.00131	.004007909
9.987500	693.9766	7.882370	20.00871	20.01888	.004347058
9.995834	694.5640	7.882345	19.97484	19.98175	.004684780
10.00417	695.1535	7.882063	20.01051	20.00570	.004923436
10.01250	695.7412	7.881648	19.99342	19.99515	.004997872
10.02083	696.3306	7.881206	20.01172	19.99576	.005044201
10.02917	696.9197	7.880543	20.00005	19.99327	.005022514
10.03750	697.5078	7.880006	19.99780	20.00104	.004958445
10.04583	698.0922	7.879870	20.00652	20.01447	.004929930
10.05417	698.6810	7.879634	19.99612	19.98821	.004863046
10.06250	699.2671	7.879358	19.99517	20.02349	.004860066
10.07083	699.8540	7.879303	19.99922	19.98912	.004832658
10.07917	700.4386	7.879239	20.00940	20.00091	.004782356
10.08750	701.0279	7.878730	19.98271	20.01164	.004818886
10.09583	701.6138	7.878575	20.02018	19.99064	.004811574
10.10417	702.2014	7.878488	19.99812	20.00034	.004908763
10.11250	702.7886	7.878256	20.00246	19.99939	.005234366
10.12083	703.3768	7.877915	19.98878	20.02668	.005511496
10.12917	703.9626	7.877532	19.99871	19.98419	.005799856
10.13750	704.5476	7.877080	19.98961	20.01176	.006141835
10.14583	705.1338	7.876730	20.00625	20.00884	.006448697
10.15417	705.7226	7.876088	19.98794	19.99115	.006602178
10.16250	706.3094	7.875728	20.01813	20.00443	.006805203
10.17083	706.8936	7.875493	20.00558	19.99574	.007088470
10.17917	707.4819	7.874802	19.99327	19.99610	.007265704
10.18750	708.0670	7.874540	19.99791	20.01119	.007285326
10.19583	708.6519	7.874134	20.00684	20.00318	.007212714
10.20417	709.2397	7.873651	20.00336	20.00324	.007078656
10.21250	709.8239	7.873194	19.99696	19.99948	.007063196
10.22083	710.4094	7.872839	19.98735	20.00847	.007098809
10.22917	710.9978	7.872490	20.00525	19.98706	.007129082
10.23750	711.5859	7.871876	19.99922	19.99896	.007242490
10.24583	712.1722	7.871339	20.02604	19.99776	.007321365
10.25417	712.7606	7.871078	19.97977	19.99773	.007485141
10.26250	713.3444	7.870800	19.99998	20.01531	.007519019
10.27083	713.9316	7.870639	19.99276	19.99700	.007484878
10.27917	714.5206	7.870174	19.99036	19.99645	.007469656
10.28750	715.1074	7.869343	20.00346	20.00240	.007456804
10.29583	715.6954	7.868975	20.01171	19.99629	.007354590
10.30417	716.2818	7.868468	20.00695	19.99170	.007123699
10.31250	716.8704	7.867926	20.00306	19.99472	.006937236
10.32083	717.4582	7.867192	19.99602	19.99356	.006876644
10.32917	718.0440	7.866972	20.00678	20.00765	.006973108
10.33750	718.6310	7.866738	19.98859	19.99238	.007202887
10.34583	719.2159	7.866344	19.99369	20.01673	.007382214
10.35417	719.8032	7.865930	20.00546	19.99644	.007532103
10.36250	720.3858	7.865668	20.00018	20.00052	.007820930
10.37083	720.9740	7.865592	20.00504	19.98934	.008137844
10.37917	721.5612	7.865274	20.00991	19.97708	.008510620
10.38750	722.1500	7.864920	19.99561	20.00243	.008809454
10.39583	722.7368	7.864250	19.99452	20.00572	.009122009
10.40417	723.3236	7.863266	19.99889	20.00426	.009527656
10.41250	723.9095	7.862490	19.99996	20.00987	.009809361
10.42083	724.4976	7.861750	19.99560	19.99717	.009987168
10.42917	725.0869	7.860992	19.98606	19.99928	0.01020937
10.43750	725.6718	7.860450	20.00866	19.98804	0.01046223
10.44583	726.2615	7.859678	20.01880	19.99900	0.01063698
10.45417	726.8490	7.859040	19.99964	19.99714	0.01070418
10.46250	727.4356	7.858880	19.99339	20.00242	0.01056601
10.47083	728.0231	7.858210	20.00544	19.98877	0.01021156
10.47917	728.6103	7.857622	19.98856	20.00562	.009852799
10.48750	729.1978	7.857265	19.98113	20.00646	.009590309
10.49584	729.7844	7.856665	20.00192	19.99675	.009433585
10.50416	730.3710	7.855962	20.00477	19.99864	.009367889
10.51250	730.9600	7.855169	20.01804	19.98082	.009309174
10.52083	731.5436	7.854395	20.00088	20.00819	.009314111
10.52916	732.1303	7.853818	20.00316	20.00026	.009500984
10.53750	732.7193	7.853534	19.99413	20.01507	.009679676
10.54584	733.3043	7.853320	19.99260	20.00549	.009742576
10.55417	733.8891	7.852932	19.99475	19.99609	.009816019
10.56250	734.4764	7.852274	20.00204	20.00366	.009843563
10.57083	735.0641	7.851640	20.00321	19.99792	.009879157
10.57916	735.6499	7.851038	20.01548	19.99930	.009952050
10.58750	736.2354	7.850439	19.99514	19.99495	0.01003598
10.59584	736.8230	7.849799	19.98729	19.98886	0.01018819
10.60417	737.4091	7.848794	20.01718	20.00467	0.01043699
10.61250	737.9957	7.848243	19.98798	20.00737	0.01067548
10.62084	738.5826	7.847769	20.00026	20.00683	0.01080316
10.62916	739.1680	7.847240	19.99217	19.99897	0.01084221
10.63750	739.7529	7.846570	20.00196	19.99684	0.01089855
10.64583	740.3394	7.845798	19.99786	19.99770	0.01092259
10.65416	740.9236	7.845202	20.02066	19.99396	0.01089802
10.66250	741.5129	7.844676	19.99404	19.99573	0.01083397
10.67084	742.1016	7.844050	20.01426	20.00206	0.01064498
10.67917	742.6895	7.843386	19.97471	20.01200	0.01055470
10.68750	743.2760	7.842758	19.99828	20.00070	0.01058605
10.69583	743.8610	7.842107	20.00811	19.99750	0.01067536
10.70416	744.4488	7.841284	19.98612	20.00400	0.01084006
10.71250	745.0347	7.840619	20.00678	19.99039	0.01107720
10.72084	745.6212	7.840106	19.99895	19.99562	0.01135368
10.72917	746.2089	7.839503	20.02038	20.00458	0.01162773
10.73750	746.7966	7.839078	19.99059	19.99293	0.01178876
10.74584	747.3855	7.838624	20.00348	20.00136	0.01187080
10.75416	747.9721	7.837960	19.99760	20.00852	0.01191016
10.76250	748.5618	7.837146	19.98988	20.00247	0.01198391
10.77083	749.1478	7.836174	19.99498	20.00102	0.01207430
10.77916	749.7344	7.835058	20.01177	19.99438	0.01229490
10.78750	750.3200	7.834195	20.00822	19.98947	0.01259097
10.79584	750.9074	7.833396	20.00152	19.99623	0.01281300
10.80417	751.4922	7.832846	19.99817	20.00020	0.01297964
10.81250	752.0820	7.832266	19.99461	20.00722	0.01305812
10.82083	752.6688	7.831794	19.99575	20.00996	0.01305802
10.82916	753.2551	7.831072	19.97508	20.00690	0.01294392
10.83750	753.8437	7.830308	20.01459	19.98891	0.01281487
10.84584	754.4281	7.829345	19.99449	20.00467	0.01276452
10.85417	755.0141	7.828344	20.00767	19.99543	0.01279791
10.86250	755.6003	7.827585	20.02191	20.00928	0.01282231
10.87084	756.1837	7.826868	19.99158	19.99181	0.01293196
10.87916	756.7697	7.826290	20.00193	19.99503	0.01303024
10.88750	757.3568	7.825442	19.99126	20.00831	0.01309638
10.89583	757.9405	7.824749	19.99627	20.00685	0.01312662
10.90416	758.5253	7.824040	19.99612	19.99927	0.01310768
10.91250	759.1135	7.823105	19.99707	20.00784	0.01303443
10.92084	759.6995	7.822197	20.00400	19.99366	0.01296928
10.92917	760.2861	7.821689	20.01142	20.00420	0.01295332
10.93750	760.8735	7.820972	20.01763	19.99636	0.01293384
10.94583	761.4606	7.820198	19.99773	19.99173	0.01290470
10.95416	762.0504	7.819499	20.00999	20.00916	0.01285921
10.96250	762.6391	7.818599	19.97611	20.00813	0.01291789
10.97084	763.2260	7.817728	19.97978	19.99867	0.01297603
10.97917	763.8132	7.816968	20.00156	19.99713	0.01310040
10.98750	764.4032	7.816180	20.01166	20.00462	0.01333753
10.99584	764.9874	7.815480	20.00412	20.00171	0.01359406
11.00416	765.5760	7.814855	19.99824	19.98089	0.01373396
11.01250	766.1630	7.814234	20.01251	19.99815	0.01380017
11.02083	766.7506	7.813560	20.00102	20.02255	0.01391333
11.02916	767.3386	7.812485	19.98905	19.99097	0.01409258
11.03750	767.9250	7.811687	19.98679	20.02266	0.01430091
11.04584	768.5124	7.810703	20.00806	19.99913	0.01453638
11.05417	769.1025	7.809448	19.99177	19.98331	0.01478065
11.06250	769.6862	7.808588	20.01732	20.00294	0.01501741
11.07083	770.2735	7.807947	19.99677	19.99036	0.01524704
11.07916	770.8632	7.807266	20.00147	20.01069	0.01546955
11.08750	771.4505	7.806480	20.00758	20.00788	0.01567130
11.09584	772.0361	7.805371	19.98580	19.97608	0.01572194
11.10417	772.6212	7.804298	19.99392	20.01590	0.01570510
11.11250	773.2081	7.803380	20.00076	19.99516	0.01568757
11.12084	773.7974	7.802445	19.99752	20.01211	0.01582994
11.12916	774.3835	7.801545	20.00464	19.98154	0.01613523
11.13750	774.9678	7.800659	20.00580	20.00980	0.01646710
11.14583	775.5538	7.799706	19.99704	19.98522	0.01676278
11.15416	776.1429	7.798589	20.00869	20.00048	0.01692456
11.16250	776.7266	7.797584	19.99556	19.99939	0.01685992
11.17084	777.3124	7.796818	19.99892	20.01694	0.01678339
11.17917	777.8997	7.796147	19.99149	19.99864	0.01677579
11.18750	778.4856	7.794795	20.00162	20.00310	0.01673546
11.19583	779.0720	7.793398	19.99378	19.99884	0.01670544
11.20416	779.6587	7.792399	20.01645	19.99243	0.01670618
11.21250	780.2475	7.791368	19.99674	19.99003	0.01663816
11.22084	780.8344	7.790321	20.00336	20.00094	0.01647388
11.22917	781.4205	7.789658	19.99697	20.01071	0.01638824
11.23750	782.0084	7.788868	20.00494	19.99437	0.01638145
11.24584	782.5950	7.787861	19.98228	20.00769	0.01635449
11.25416	783.1768	7.787015	20.00510	19.99868	0.01610659
11.26250	783.7665	7.786102	20.00110	20.00341	0.01584263
11.27083	784.3540	7.785016	20.00537	19.98974	0.01565056
11.27916	784.9394	7.784009	20.01713	20.00690	0.01543939
11.28750	785.5263	7.783284	19.99237	19.99425	0.01529184
11.29584	786.1138	7.782278	19.98720	20.00829	0.01524472
11.30417	786.7020	7.781256	19.99552	19.99209	0.01515548
11.31250	787.2864	7.780212	19.99703	20.01420	0.01503390
11.32083	787.8738	7.779434	20.00493	20.00327	0.01491507
11.32916	788.4595	7.778522	19.99672	19.99791	0.01473796
11.33750	789.0479	7.777735	19.99646	19.99554	0.01453345
11.34584	789.6335	7.777216	20.00805	19.98228	0.01425927
11.35417	790.2210	7.776407	20.00434	20.00855	0.01399981
11.36250	790.8085	7.775468	19.99825	20.00309	0.01365871
11.37084	791.3960	7.774684	20.00058	20.01581	0.01328061
11.37916	791.9832	7.773748	19.99531	20.00709	0.01298308
11.38750	792.5680	7.772782	19.99420	20.00242	0.01274061
11.39583	793.1538	7.772124	20.00860	19.99158	0.01245435
11.40416	793.7413	7.771230	19.99994	19.98496	0.01218084
11.41250	794.3258	7.770634	20.00220	20.01084	0.01191584
11.42084	794.9141	7.770099	19.99536	19.96705	0.01163092
11.42917	795.5008	7.769501	20.01430	19.99960	0.01132742
11.43750	796.0861	7.768999	20.00704	19.99026	0.01108153
11.44583	796.6758	7.768228	19.97761	19.99625	0.01088159
11.45416	797.2616	7.767526	20.00620	20.02562	0.01071540
11.46250	797.8462	7.767040	19.99894	19.99484	0.01057996
11.47084	798.4316	7.766420	19.99055	20.00046	0.01032224
11.47917	799.0196	7.765984	19.99249	20.00380	0.01008513
11.48750	799.6069	7.765335	20.00981	20.00639	.009865454
11.49584	800.1952	7.764605	20.01036	19.98827	.009710043
11.50416	800.7838	7.763952	20.00284	19.98928	.009654858
11.51250	801.3696	7.763238	19.99694	20.00594	.009566172
11.52083	801.9590	7.762541	19.98954	19.99484	.009476368
11.52916	802.5424	7.761972	20.00814	20.01176	.009444134
11.53750	803.1269	7.761785	19.98174	20.00884	.009342208
11.54584	803.7116	7.761478	19.99190	20.01158	.009103759
11.55417	804.2993	7.761195	20.02140	19.99690	.008674960
11.56250	804.8870	7.760644	20.00600	19.98452	.008244068
11.57083	805.4759	7.759820	20.00584	19.99072	.007825298
11.57916	806.0630	7.759094	19.99956	20.01164	.007360544
11.58750	806.6504	7.758526	19.98367	20.01074	.006967172
11.59584	807.2337	7.757972	20.01895	20.00944	.006692088
11.60417	807.8176	7.757493	19.98207	19.99778	.006522108
11.61250	808.4036	7.757245	20.00351	20.01030	.006298060
11.62084	808.9869	7.757378	19.99885	19.98869	.005929158
11.62916	809.5750	7.757129	20.01347	20.00499	.005428500
11.63750	810.1606	7.756772	19.99603	19.99670	.004851438
11.64583	810.7482	7.756679	20.00710	19.99990	.004289320
11.65416	811.3326	7.756434	19.99206	20.01006	.003867160
11.66250	811.9187	7.756018	20.00006	19.99968	.003556100
11.67084	812.5049	7.755649	19.99623	20.01822	.003324519
11.67917	813.0890	7.755292	20.00961	19.98799	.003192583
11.68750	813.6750	7.755189	19.97331	19.99554	.003184485
11.69583	814.2600	7.755166	20.00167	20.01432	.003028447
11.70416	814.8460	7.755016	20.02327	19.98126	.002777472
11.71250	815.4331	7.755049	19.99257	20.00570	.002622044
11.72084	816.0186	7.754952	20.01108	19.99610	.002525867
11.72917	816.6032	7.754768	19.98936	20.00648	.002437298
11.73750	817.1878	7.754571	19.99559	19.99738	.002539098
11.74584	817.7749	7.754508	20.00521	20.01031	.002907874
11.75416	818.3611	7.754212	19.98793	19.99687	.003564092
11.76250	818.9504	7.754153	20.00214	19.98765	.004403278
11.77083	819.5391	7.754170	20.00792	19.98517	.005223202
11.77916	820.1303	7.754070	20.00307	19.99859	.005971948
11.78750	820.7130	7.753734	20.00699	19.99650	.006555640
11.79584	821.3012	7.753510	20.00209	19.99172	.006971776
11.80417	821.8882	7.753050	19.99409	19.99376	.007276162
11.81250	822.4728	7.752292	19.98756	20.00137	.007466139
11.82083	823.0600	7.751366	19.99459	20.01542	.007479540
11.82916	823.6488	7.750361	20.00988	19.99295	.007442870
11.83750	824.2350	7.749570	19.99718	19.98660	.007336499
11.84584	824.8207	7.749075	20.00148	19.99173	.007069778
11.85417	825.4085	7.748804	20.01542	19.99346	.006616766
11.86250	825.9868	7.748668	19.99264	20.01266	.005976472
11.87084	826.5676	7.748480	20.00197	19.99412	.005130478
11.87916	827.1447	7.748360	19.99630	20.01426	.004132785
11.88750	827.7257	7.748339	19.97793	20.00736	.003095478
11.89583	828.3081	7.748222	20.00465	19.98768	.002139853
11.90416	828.8878	7.747982	20.00580	20.01218	.001417656
11.91250	829.4749	7.747840	20.00929	19.99913	.001015094
11.92084	830.0610	7.747592	19.99935	19.99527	8.91597E-4
11.92917	830.6461	7.747620	20.00689	19.99232	9.40446E-4
11.93750	831.2316	7.747820	19.99456	19.99944	.001016933
11.94583	831.8181	7.747995	20.01239	19.99998	.001126034
11.95416	832.4090	7.748140	19.98626	20.01256	.001135447
11.96250	832.9960	7.748261	19.98921	20.00730	8.68933E-4
11.97084	833.5844	7.748288	20.00060	20.00682	3.46099E-4
11.97917	834.1775	7.748074	19.99876	19.98608	-1.7225E-4
11.98750	834.7691	7.747720	20.00592	19.99925	-5.1944E-4
11.99584	835.3614	7.747281	20.01274	20.00876	-5.6492E-4
12.00416	835.9488	7.747082	20.00102	20.00090	-4.4433E-4
12.01250	836.5366	7.746848	19.99534	19.99690	-2.8120E-4
12.02083	837.1268	7.746874	19.98794	19.99709	-1.4200E-4
12.02916	837.7062	7.747389	20.00308	20.00996	-2.8422E-5
12.03750	838.2929	7.748266	19.98535	20.00880	-5.4046E-6
12.04584	838.8809	7.748892	20.01962	19.99305	-3.9351E-5
12.05417	839.4726	7.749034	20.00406	19.99758	-3.5992E-5
12.06250	840.0599	7.748608	19.99667	20.00432	6.63877E-5
12.07083	840.6481	7.748225	20.00743	19.99574	3.57313E-4
12.07916	841.2336	7.747874	20.00243	20.00678	6.88065E-4
12.08750	841.8219	7.747686	19.98877	19.99990	.001051592
12.09584	842.4071	7.747461	19.99996	20.01666	.001428296
12.10417	842.9938	7.747439	19.99749	19.99832	.001746921
12.11250	843.5819	7.747430	19.99709	19.98611	.001782652
12.12084	844.1700	7.747278	19.99865	20.01245	.001492561
12.12916	844.7580	7.747144	20.00969	19.97588	9.68025E-4
12.13750	845.3424	7.746832	20.00030	20.01181	4.44196E-4
12.14583	845.9459	7.746765	20.00378	20.00792	5.69731E-5
12.15416	846.5462	7.746816	19.99981	19.99428	-2.2129E-4
12.16250	847.1297	7.747049	19.99246	20.01019	-4.9584E-4
12.17084	847.7150	7.747210	20.01894	19.99435	-6.8584E-4
12.17917	848.2984	7.747410	19.98520	20.00862	-9.4404E-4
12.18750	848.8831	7.747582	20.00739	19.99995	-1.2832E-3
12.19583	849.4634	7.747692	19.99552	19.99308	-1.6529E-3
12.20416	850.0500	7.747803	19.99766	19.98188	-1.9229E-3
12.21250	850.6329	7.747754	20.00338	20.01796	-1.9200E-3
12.22084	851.2151	7.747582	20.00324	20.00653	-1.7111E-3
12.22917	851.7970	7.747809	20.00293	19.99487	-1.4144E-3
12.23750	852.3789	7.747734	19.98377	20.00393	-1.0739E-3
12.24584	852.9649	7.748032	20.00484	19.99478	-7.3881E-4
12.25416	853.5470	7.748288	20.00330	20.00802	-4.4025E-4
12.26250	854.1293	7.748707	19.99696	19.98109	-2.0133E-4
12.27083	854.7181	7.748882	19.99206	19.99596	2.21378E-5
12.27916	855.3062	7.748675	20.00383	19.99485	2.28034E-4
12.28750	855.8848	7.748278	20.01833	20.00738	3.51881E-4
12.29584	856.4656	7.748126	19.99900	19.99301	4.99525E-4
12.30417	857.0499	7.747919	19.98740	20.00324	5.68023E-4
12.31250	857.6355	7.747772	19.98674	20.00858	6.64198E-4
12.32083	858.2218	7.747700	20.00398	19.98456	7.60935E-4
12.32916	858.8113	7.747696	19.99761	20.00297	8.13461E-4
12.33750	859.4004	7.747710	20.02033	19.98156	7.76313E-4
12.34584	859.9891	7.747540	20.00032	19.99880	5.52030E-4
12.35417	860.5775	7.747599	19.99342	20.00279	1.79849E-4
12.36250	861.1670	7.747712	20.00639	19.99820	-2.4926E-4
12.37084	861.7548	7.747906	19.99612	19.99650	-5.5170E-4
12.37916	862.3456	7.748006	19.98889	20.00083	-7.1183E-4
12.38750	862.9334	7.747962	19.99212	20.00473	-8.0201E-4
12.39583	863.5242	7.747960	20.00509	19.99324	-9.2530E-4
12.40416	864.1131	7.747798	20.00518	19.99006	-1.0841E-3
12.41250	864.7001	7.747784	20.00927	20.00220	-1.2606E-3
12.42084	865.2876	7.747869	20.00563	20.00008	-1.7096E-3
12.42917	865.8714	7.748419	19.99170	20.00314	-2.3098E-3
12.43750	866.4600	7.748576	20.00476	20.00229	-2.8329E-3
12.44583	867.0468	7.748430	19.99168	20.02048	-3.3779E-3
12.45416	867.6359	7.748321	19.98970	20.00661	-3.9720E-3
12.46250	868.2242	7.748407	20.01066	20.00114	-4.4208E-3
12.47084	868.8101	7.748811	19.99562	19.99438	-4.7392E-3
12.47917	869.3968	7.748690	20.00835	19.99230	-5.0565E-3
12.48750	869.9816	7.749472	19.98991	20.01076	-5.3266E-3
12.49584	870.5670	7.750612	20.01099	20.00882	-5.4927E-3
12.50416	871.1534	7.751074	20.00034	19.99902	-5.8324E-3
12.51250	871.7375	7.751329	19.99500	20.01034	-6.4399E-3
12.52083	872.3214	7.751812	19.99953	20.00064	-7.1003E-3
12.52916	872.9101	7.751929	19.98933	20.01638	-7.6106E-3
12.53750	873.4972	7.751954	20.00030	19.99329	-7.8254E-3
